Index,AccelX,AccelY,AccelZ,GyroX,GyroY,GyroZ,Finger1,Finger2,Finger3,Finger4,Finger5,Iteration,Gesture
0,6.56,1.13,6.53,-0.07,0.07,0.02,634.0,619.0,619.0,569.0,492.0,1,1
1,6.95,1.13,6.77,0.0,0.52,-0.02,638.0,620.0,619.0,569.0,495.0,1,1
2,5.84,1.27,7.31,0.73,0.46,-0.62,642.0,623.0,619.0,579.0,506.0,1,1
3,3.19,1.34,6.21,0.23,0.34,-0.36,641.0,626.0,619.0,588.0,526.0,1,1
4,4.12,1.46,6.64,-0.82,-0.13,0.5,639.0,625.0,619.0,575.0,511.0,1,1
5,6.89,2.38,10.02,-0.74,-0.13,0.4,637.0,615.0,619.0,558.0,491.0,1,1
6,9.63,3.34,7.77,-1.86,0.15,1.1,639.0,614.0,619.0,558.0,501.0,1,1
7,6.57,-2.41,8.61,-1.83,0.19,1.15,642.0,612.0,616.0,561.0,505.0,1,1
8,3.26,-3.63,4.98,-0.31,0.42,0.28,645.0,613.0,617.0,565.0,508.0,1,1
9,2.95,-2.07,4.62,-0.16,0.73,0.43,646.0,614.0,617.0,564.0,508.0,1,1
10,4.53,-3.71,6.73,0.71,-0.13,-0.37,646.0,615.0,617.0,564.0,509.0,1,1
11,3.85,-2.12,7.32,1.27,-0.03,-0.63,645.0,615.0,617.0,560.0,503.0,1,1
12,5.08,-2.45,10.27,2.78,0.9,-1.01,644.0,615.0,618.0,554.0,501.0,1,1
13,10.4,13.03,12.86,0.12,-2.24,0.05,642.0,613.0,618.0,554.0,502.0,1,1
14,3.48,2.07,7.44,-1.95,0.32,0.99,643.0,614.0,618.0,555.0,501.0,1,1
15,3.57,-2.97,8.5,-1.56,0.04,0.67,643.0,614.0,617.0,556.0,502.0,1,1
16,1.27,-1.78,2.72,-0.62,0.02,0.31,643.0,616.0,617.0,559.0,503.0,1,1
17,1.79,-1.34,4.71,0.7,0.05,-0.34,642.0,615.0,618.0,558.0,505.0,1,1
18,2.82,-1.39,6.36,2.32,0.05,-0.96,642.0,616.0,618.0,558.0,504.0,1,1
19,-19.29,45.68,20.8,-4.4,2.15,0.17,642.0,615.0,617.0,558.0,504.0,1,1
20,9.35,5.3,4.09,-1.06,-0.54,0.38,642.0,615.0,618.0,558.0,502.0,1,1
21,5.31,-1.65,9.62,-2.61,0.21,1.34,643.0,614.0,618.0,558.0,504.0,1,1
22,1.29,-2.09,2.79,-1.37,-0.04,0.63,642.0,614.0,618.0,559.0,505.0,1,1
23,-0.57,-6.76,0.48,-0.39,0.85,0.16,644.0,615.0,618.0,559.0,506.0,1,1
24,2.52,-2.58,5.04,2.3,0.17,-0.94,643.0,615.0,618.0,559.0,506.0,1,1
25,1.15,-2.89,9.91,5.31,0.21,-2.02,641.0,616.0,620.0,560.0,504.0,1,1
26,3.77,1.94,21.45,-1.19,0.93,0.25,641.0,614.0,618.0,555.0,502.0,1,1
27,6.38,0.82,8.22,-2.33,-0.58,0.79,641.0,614.0,618.0,559.0,503.0,1,1
28,3.59,-2.0,5.27,-2.2,0.4,1.03,641.0,615.0,618.0,559.0,505.0,1,1
29,1.84,-2.25,0.93,-1.01,-0.14,0.57,641.0,614.0,617.0,559.0,507.0,1,1
30,1.82,-3.0,3.97,2.18,0.27,-0.62,640.0,614.0,619.0,560.0,507.0,1,1
31,2.08,-2.51,9.32,4.57,0.7,-1.33,635.0,614.0,620.0,561.0,505.0,1,1
32,49.86,-50.66,42.43,-3.21,-3.87,1.74,632.0,606.0,617.0,560.0,504.0,1,1
33,7.19,4.17,6.76,-2.61,-0.44,0.88,628.0,607.0,617.0,560.0,502.0,1,1
34,5.57,9.45,10.3,-3.84,0.99,1.93,625.0,607.0,616.0,561.0,504.0,1,1
35,0.37,-3.16,-1.25,-2.73,0.22,0.57,617.0,602.0,616.0,563.0,508.0,1,1
36,1.52,-2.51,-0.13,2.64,-0.51,-1.29,619.0,605.0,618.0,563.0,509.0,1,1
37,1.33,-2.26,6.25,5.19,0.6,-1.73,624.0,609.0,620.0,563.0,507.0,1,1
38,5.48,4.42,15.22,4.33,0.66,-1.09,631.0,608.0,620.0,563.0,503.0,1,1
39,5.38,-3.11,17.76,-1.31,-0.66,-0.11,627.0,606.0,619.0,562.0,503.0,1,1
40,5.18,0.73,5.86,-2.1,0.31,0.79,627.0,607.0,619.0,563.0,505.0,1,1
41,1.92,-1.47,2.04,-2.32,0.83,1.21,627.0,607.0,620.0,564.0,507.0,1,1
42,1.9,-3.11,0.31,-0.6,-0.04,0.37,628.0,606.0,620.0,564.0,509.0,1,1
43,1.13,-2.53,3.99,2.46,-0.53,-0.91,627.0,608.0,620.0,565.0,509.0,1,1
44,2.34,-0.55,11.4,4.61,1.31,-1.11,628.0,608.0,620.0,565.0,506.0,1,1
45,9.84,14.71,33.66,-2.49,-1.81,-0.02,629.0,605.0,618.0,562.0,504.0,1,1
46,5.29,2.56,6.43,-2.23,0.25,0.66,630.0,606.0,619.0,563.0,503.0,1,1
47,2.19,-1.36,4.26,-3.18,0.55,1.21,629.0,607.0,619.0,563.0,506.0,1,1
48,-0.18,-2.77,0.27,-1.59,0.47,0.8,628.0,606.0,619.0,564.0,508.0,1,1
49,1.36,-3.27,1.52,1.75,0.26,-0.29,627.0,606.0,620.0,565.0,510.0,1,1
50,1.97,-3.78,7.32,4.73,0.35,-1.39,627.0,608.0,621.0,564.0,510.0,1,1
51,8.11,7.14,9.5,5.27,0.63,-1.29,629.0,602.0,610.0,566.0,507.0,1,1
52,7.41,3.55,8.84,-1.88,-1.29,0.15,629.0,605.0,619.0,562.0,502.0,1,1
53,5.29,-1.16,6.83,-3.58,-0.5,1.04,629.0,606.0,619.0,564.0,505.0,1,1
54,2.23,-2.14,0.71,-2.41,0.34,0.56,628.0,606.0,620.0,564.0,508.0,1,1
55,2.53,-1.4,0.21,-0.35,-0.11,-0.15,626.0,605.0,620.0,565.0,511.0,1,1
56,1.6,-2.46,3.09,3.15,-0.26,-0.94,625.0,608.0,620.0,565.0,511.0,1,1
57,2.08,-0.04,11.43,5.33,1.63,-0.9,629.0,609.0,621.0,564.0,506.0,1,1
58,31.88,6.11,25.56,-1.05,-2.77,-0.28,628.0,604.0,618.0,562.0,505.0,1,1
59,3.27,1.3,6.28,-2.12,-0.07,0.54,629.0,606.0,620.0,563.0,504.0,1,1
60,3.16,-1.03,3.07,-2.67,1.61,0.92,628.0,607.0,620.0,564.0,507.0,1,1
61,0.73,-3.78,-0.31,-1.37,0.08,0.49,628.0,607.0,620.0,565.0,510.0,1,1
62,2.53,-2.13,3.22,0.97,-0.04,-0.41,627.0,607.0,620.0,565.0,511.0,1,1
63,1.24,-3.25,9.05,4.69,0.45,-1.44,628.0,609.0,621.0,566.0,511.0,1,1
64,13.01,9.43,-7.22,5.98,0.02,-1.16,629.0,598.0,607.0,565.0,508.0,1,1
65,7.1,3.95,8.84,-1.48,-1.61,0.06,630.0,604.0,620.0,562.0,502.0,1,1
66,3.52,-0.34,5.53,-2.85,0.47,1.07,629.0,605.0,621.0,565.0,505.0,1,1
67,1.62,-2.86,0.72,-2.35,0.41,0.65,628.0,606.0,621.0,565.0,509.0,1,1
68,1.84,-3.11,0.03,-0.73,-0.24,0.16,628.0,608.0,620.0,566.0,511.0,1,1
69,0.77,-3.74,3.38,2.78,0.27,-0.7,627.0,608.0,621.0,566.0,512.0,1,1
70,1.32,0.7,11.07,5.39,0.58,-1.17,628.0,609.0,621.0,566.0,508.0,1,1
71,27.89,11.37,31.19,-1.39,-3.91,-0.14,627.0,603.0,618.0,562.0,506.0,1,1
72,3.7,1.31,6.14,-2.35,0.02,0.62,630.0,605.0,620.0,565.0,504.0,1,1
73,3.58,-4.32,4.11,-3.07,0.92,0.91,629.0,606.0,620.0,565.0,508.0,1,1
74,-0.0,-4.26,0.12,-1.62,-0.25,0.34,628.0,606.0,620.0,567.0,512.0,1,1
75,1.97,-4.25,1.99,1.33,0.19,-0.63,626.0,607.0,621.0,567.0,513.0,1,1
76,2.84,-3.19,6.13,4.91,0.57,-1.4,628.0,609.0,622.0,567.0,512.0,1,1
77,8.43,6.71,5.83,5.66,0.28,-1.14,627.0,598.0,609.0,567.0,510.0,1,1
78,7.25,4.07,9.18,-0.72,-1.28,-0.25,629.0,603.0,620.0,562.0,502.0,1,1
79,2.76,0.64,4.86,-2.78,0.47,1.07,628.0,604.0,620.0,565.0,505.0,1,1
80,0.5,-4.24,1.17,-2.72,0.95,0.52,629.0,605.0,620.0,565.0,508.0,1,1
81,3.38,-2.98,0.28,-1.1,-0.88,0.2,627.0,607.0,620.0,566.0,512.0,1,1
82,1.85,-3.79,4.25,2.06,0.47,-0.53,626.0,607.0,620.0,567.0,512.0,1,1
83,-0.79,-0.62,9.56,6.99,0.56,-1.67,627.0,608.0,622.0,566.0,509.0,1,1
84,4.13,-13.26,28.83,-4.22,1.86,2.4,628.0,602.0,619.0,561.0,506.0,1,1
85,5.85,3.98,4.31,-1.48,-0.69,0.15,629.0,604.0,620.0,563.0,503.0,1,1
86,3.97,-2.72,3.92,-2.96,0.64,0.92,628.0,605.0,619.0,564.0,506.0,1,1
87,2.48,-5.31,2.25,-1.78,-0.77,0.13,627.0,606.0,620.0,566.0,510.0,1,1
88,2.09,-3.92,3.08,0.69,0.24,-0.27,627.0,606.0,620.0,566.0,512.0,1,1
89,0.83,-2.05,6.46,4.09,1.09,-0.83,628.0,608.0,621.0,567.0,513.0,1,1
90,8.41,7.36,14.48,5.13,-0.44,-1.24,630.0,605.0,616.0,568.0,511.0,1,1
91,4.16,3.99,8.68,-0.72,-0.48,-0.02,630.0,605.0,620.0,564.0,504.0,1,1
92,2.91,0.91,3.7,-3.02,0.15,1.03,630.0,605.0,620.0,566.0,506.0,1,1
93,2.87,-3.67,1.35,-2.8,0.11,0.54,630.0,607.0,620.0,568.0,511.0,1,1
94,2.18,-2.38,0.91,-1.25,-0.71,0.13,628.0,607.0,620.0,567.0,514.0,1,1
95,2.12,-3.99,4.63,2.37,0.71,-0.64,627.0,607.0,620.0,568.0,515.0,1,1
96,1.27,0.14,10.0,6.74,0.62,-1.59,628.0,607.0,622.0,567.0,509.0,1,1
97,-0.95,-23.92,27.71,-4.05,1.3,2.55,629.0,603.0,618.0,563.0,506.0,1,1
98,3.8,4.29,3.59,-1.86,-0.23,0.58,629.0,605.0,620.0,563.0,503.0,1,1
99,3.02,-3.04,3.56,-3.18,0.62,1.27,628.0,606.0,620.0,564.0,507.0,1,1
100,0.4,-3.34,-1.47,-2.42,-0.21,0.39,628.0,607.0,620.0,567.0,511.0,1,1
101,1.89,-4.25,1.72,-0.29,-0.31,-0.28,627.0,607.0,620.0,567.0,513.0,1,1
102,2.55,-4.7,8.21,4.56,0.33,-1.42,626.0,608.0,621.0,567.0,514.0,1,1
103,7.54,7.84,9.95,4.9,-0.8,-1.1,631.0,607.0,622.0,565.0,503.0,1,1
104,8.73,-5.99,21.96,-1.09,0.56,0.4,628.0,605.0,618.0,562.0,504.0,1,1
105,5.38,-0.21,5.89,-2.17,0.12,0.7,628.0,605.0,619.0,564.0,505.0,1,1
106,1.74,-3.29,2.27,-2.44,-0.11,0.6,628.0,606.0,620.0,566.0,509.0,1,1
107,1.01,-3.67,1.25,-1.35,-0.1,0.29,628.0,607.0,619.0,566.0,511.0,1,1
108,2.85,-3.93,2.77,0.93,0.19,-0.55,627.0,606.0,620.0,566.0,511.0,1,1
109,0.8,-1.66,9.55,5.38,0.2,-1.48,625.0,608.0,621.0,566.0,511.0,1,1
110,7.32,18.74,-10.03,6.05,2.17,-0.65,627.0,602.0,608.0,565.0,508.0,1,1
111,5.36,4.34,8.78,-1.32,-1.32,-0.04,626.0,605.0,620.0,563.0,504.0,1,1
112,3.59,-0.52,4.97,-2.82,0.3,1.05,628.0,606.0,621.0,566.0,507.0,1,1
113,0.07,-4.54,-1.37,-2.64,0.48,0.64,626.0,607.0,620.0,567.0,510.0,1,1
114,2.64,-3.22,0.79,-0.65,-0.75,-0.13,625.0,606.0,620.0,567.0,513.0,1,1
115,1.72,-4.68,6.03,3.6,0.07,-0.99,625.0,607.0,621.0,568.0,513.0,1,1
116,3.75,3.76,9.12,5.45,-0.35,-1.2,627.0,607.0,622.0,565.0,505.0,1,1
117,6.31,-1.78,24.4,-1.75,-1.37,-0.03,624.0,604.0,619.0,560.0,503.0,1,1
118,2.99,0.47,5.8,-3.55,-0.09,1.31,625.0,605.0,620.0,565.0,506.0,1,1
119,-0.2,-6.28,0.14,-2.96,1.26,0.85,625.0,606.0,620.0,567.0,510.0,1,1
120,0.84,-2.89,-0.62,-1.23,-0.7,0.09,624.0,605.0,620.0,567.0,513.0,1,1
121,1.2,-3.68,3.9,2.68,0.03,-0.92,624.0,605.0,621.0,567.0,514.0,1,1
122,1.98,-1.95,8.93,5.8,0.8,-1.43,626.0,606.0,622.0,567.0,510.0,1,1
123,38.75,1.87,43.62,-8.73,-8.73,1.92,626.0,600.0,619.0,562.0,507.0,1,1
124,7.51,3.24,3.42,-2.23,-0.58,0.6,628.0,602.0,621.0,563.0,504.0,1,1
125,1.25,-5.07,4.57,-4.15,1.19,1.4,627.0,604.0,620.0,566.0,508.0,1,1
126,0.16,-3.78,0.98,-2.66,-0.11,0.75,626.0,603.0,620.0,567.0,514.0,1,1
127,2.04,-2.77,1.36,0.46,-0.07,-0.12,627.0,604.0,620.0,566.0,515.0,1,1
128,1.84,-2.87,5.76,3.6,0.76,-0.94,627.0,605.0,622.0,567.0,514.0,1,1
129,0.52,-0.79,13.72,6.75,-1.18,-1.62,628.0,605.0,622.0,565.0,507.0,1,1
130,-8.47,0.97,23.83,-3.13,2.15,0.92,627.0,602.0,620.0,560.0,504.0,1,1
131,1.2,-0.17,4.87,-3.12,0.22,0.92,627.0,602.0,620.0,563.0,506.0,1,1
132,2.78,-1.82,1.99,-2.83,0.34,0.84,627.0,604.0,620.0,566.0,511.0,1,1
133,0.53,-2.21,-1.04,-1.71,-0.46,0.49,627.0,604.0,620.0,568.0,514.0,1,1
134,1.9,-3.02,3.5,1.12,0.45,-0.09,627.0,603.0,621.0,567.0,516.0,1,1
135,1.54,-7.26,13.18,7.46,2.03,-1.53,627.0,603.0,622.0,566.0,513.0,1,1
136,47.51,0.13,40.02,-7.09,-8.73,1.29,627.0,600.0,618.0,561.0,505.0,1,1
137,8.49,2.4,7.49,-2.14,-0.26,0.49,627.0,601.0,619.0,563.0,505.0,1,1
138,3.92,-4.02,3.25,-3.09,0.5,1.33,627.0,602.0,620.0,565.0,508.0,1,1
139,1.36,-3.64,0.81,-2.34,0.06,1.17,626.0,602.0,620.0,565.0,512.0,1,1
140,2.09,-3.5,1.7,0.2,-0.01,-0.04,626.0,602.0,620.0,567.0,515.0,1,1
141,1.14,-3.67,4.21,3.57,-0.36,-1.51,627.0,605.0,621.0,567.0,515.0,1,1
142,1.06,1.15,13.4,6.55,-1.13,-1.95,629.0,606.0,622.0,567.0,509.0,1,1
143,13.27,5.63,16.77,-2.29,2.25,0.9,627.0,602.0,620.0,563.0,505.0,1,1
144,2.29,1.49,3.99,-3.62,0.53,1.28,630.0,603.0,621.0,567.0,508.0,1,1
145,3.29,-2.57,3.96,-4.11,-0.01,1.47,629.0,604.0,620.0,567.0,513.0,1,1
146,2.27,-4.0,0.35,-1.94,-0.2,0.62,628.0,600.0,621.0,567.0,518.0,1,1
147,2.52,-3.82,2.88,2.25,0.09,-0.77,628.0,600.0,621.0,567.0,518.0,1,1
148,1.37,-7.15,8.79,7.24,1.35,-2.18,626.0,605.0,623.0,567.0,515.0,1,1
149,-5.31,61.78,7.86,6.45,-0.1,-1.51,628.0,597.0,611.0,565.0,508.0,1,1
150,3.64,-1.74,7.7,0.41,-0.82,-0.06,646.0,598.0,578.0,576.0,529.0,2,1
151,4.75,-1.06,6.02,0.65,-0.63,0.17,641.0,604.0,582.0,577.0,530.0,2,1
152,6.94,-0.79,4.8,0.62,-0.43,0.05,635.0,608.0,588.0,578.0,528.0,2,1
153,5.98,-1.17,4.84,0.32,0.07,-0.22,640.0,613.0,591.0,579.0,521.0,2,1
154,1.81,-1.92,6.85,0.11,0.28,-0.09,644.0,619.0,593.0,576.0,498.0,2,1
155,7.02,-0.87,9.05,0.26,-0.58,-0.31,648.0,619.0,591.0,571.0,498.0,2,1
156,6.5,-0.08,11.26,0.52,-0.44,-0.17,649.0,620.0,591.0,569.0,498.0,2,1
157,5.63,0.94,7.15,-0.78,0.33,0.51,650.0,620.0,587.0,569.0,498.0,2,1
158,6.73,-1.13,9.28,-1.19,-1.21,0.7,651.0,622.0,575.0,566.0,497.0,2,1
159,4.73,-2.72,6.12,-0.31,0.14,0.08,651.0,622.0,567.0,565.0,498.0,2,1
160,2.05,-1.08,3.53,0.53,0.17,-0.55,652.0,622.0,568.0,564.0,499.0,2,1
161,3.17,-1.81,5.58,1.92,-0.11,-1.47,652.0,622.0,568.0,563.0,499.0,2,1
162,8.99,4.35,8.48,3.56,1.04,-2.18,652.0,621.0,574.0,568.0,502.0,2,1
163,6.48,1.24,7.3,0.02,0.21,0.06,652.0,621.0,572.0,564.0,500.0,2,1
164,5.89,0.0,7.56,-1.21,-0.62,0.76,653.0,622.0,573.0,566.0,501.0,2,1
165,3.03,-0.13,1.9,-0.81,0.22,0.55,653.0,621.0,572.0,566.0,501.0,2,1
166,2.57,-0.87,3.68,-0.42,0.12,0.11,652.0,622.0,570.0,566.0,502.0,2,1
167,4.07,-0.6,3.9,1.02,-0.11,-0.76,652.0,622.0,569.0,566.0,503.0,2,1
168,5.09,-0.01,8.65,2.96,0.3,-1.5,652.0,621.0,572.0,565.0,503.0,2,1
169,7.86,0.65,16.3,-0.29,0.79,-0.54,651.0,621.0,567.0,564.0,501.0,2,1
170,5.87,1.43,7.37,-1.88,0.18,1.25,652.0,622.0,571.0,566.0,501.0,2,1
171,4.12,-2.46,4.78,-0.99,-0.36,0.57,652.0,621.0,568.0,565.0,502.0,2,1
172,1.45,-1.32,2.3,-0.3,0.05,0.07,652.0,622.0,569.0,566.0,503.0,2,1
173,3.05,-0.5,3.44,0.89,-0.19,-0.95,652.0,621.0,569.0,566.0,502.0,2,1
174,5.21,-0.08,7.98,2.41,0.54,-1.68,651.0,621.0,573.0,567.0,503.0,2,1
175,11.3,0.39,21.55,-0.13,0.2,0.07,651.0,620.0,569.0,564.0,503.0,2,1
176,5.7,3.45,5.69,-1.27,0.53,0.95,652.0,621.0,576.0,568.0,503.0,2,1
177,5.0,-1.23,6.57,-1.05,-0.35,0.73,652.0,621.0,572.0,566.0,503.0,2,1
178,2.27,-0.87,2.05,-0.45,0.49,0.43,651.0,621.0,573.0,567.0,504.0,2,1
179,2.76,-0.59,2.42,0.56,-0.19,-0.38,652.0,621.0,572.0,568.0,505.0,2,1
180,4.13,-0.69,7.43,2.35,0.23,-1.33,651.0,621.0,573.0,567.0,505.0,2,1
181,18.69,-6.52,23.74,-1.1,1.78,1.43,652.0,619.0,569.0,566.0,505.0,2,1
182,5.15,6.18,1.75,-0.92,0.34,0.74,651.0,622.0,574.0,568.0,504.0,2,1
183,5.92,-1.21,8.6,-1.37,-0.17,0.96,652.0,621.0,569.0,567.0,505.0,2,1
184,1.81,-0.96,2.23,-0.64,-0.03,0.61,652.0,621.0,568.0,568.0,505.0,2,1
185,2.15,-1.33,2.79,0.17,0.04,-0.03,652.0,622.0,564.0,567.0,505.0,2,1
186,3.81,-0.47,4.59,1.93,-0.5,-1.38,652.0,622.0,566.0,568.0,505.0,2,1
187,7.01,4.4,8.42,2.99,1.09,-1.5,651.0,622.0,574.0,568.0,506.0,2,1
188,8.17,5.09,3.35,0.5,-0.98,-0.63,651.0,621.0,570.0,566.0,504.0,2,1
189,6.78,0.6,8.59,-2.26,0.68,1.81,652.0,622.0,569.0,567.0,505.0,2,1
190,1.52,-1.73,3.03,-1.57,-0.29,0.86,652.0,622.0,566.0,567.0,505.0,2,1
191,1.45,-1.64,2.88,-0.96,-0.12,0.39,652.0,622.0,563.0,567.0,506.0,2,1
192,3.17,-1.51,3.19,0.88,-0.19,-0.94,653.0,623.0,563.0,568.0,506.0,2,1
193,6.39,-2.2,7.1,3.65,0.17,-2.15,652.0,622.0,568.0,568.0,506.0,2,1
194,46.6,5.03,34.78,-2.68,-1.45,3.34,653.0,621.0,566.0,567.0,507.0,2,1
195,7.45,3.88,3.03,-0.75,-0.77,0.35,652.0,623.0,571.0,567.0,505.0,2,1
196,6.49,-1.27,7.45,-1.66,0.53,1.35,651.0,623.0,568.0,568.0,506.0,2,1
197,1.73,-1.24,1.58,-0.55,0.16,0.48,653.0,622.0,570.0,567.0,506.0,2,1
198,2.06,-1.74,1.71,0.26,-0.04,-0.25,652.0,623.0,568.0,569.0,506.0,2,1
199,3.09,0.3,4.36,1.72,-0.33,-1.35,653.0,622.0,568.0,569.0,507.0,2,1
200,8.82,5.22,11.08,3.15,0.34,-1.81,652.0,622.0,572.0,570.0,510.0,2,1
201,8.45,4.95,3.5,-0.39,-1.3,-0.19,652.0,621.0,569.0,566.0,504.0,2,1
202,7.67,-1.47,10.11,-2.56,-0.26,1.66,651.0,622.0,566.0,567.0,505.0,2,1
203,2.18,-1.7,2.47,-1.1,0.12,0.72,651.0,620.0,566.0,567.0,505.0,2,1
204,1.55,-2.17,0.97,-0.6,-0.13,0.07,652.0,622.0,565.0,567.0,506.0,2,1
205,2.28,-1.3,2.74,1.04,0.21,-0.94,651.0,622.0,565.0,568.0,506.0,2,1
206,4.24,-1.0,10.64,3.3,0.39,-2.3,651.0,621.0,568.0,568.0,506.0,2,1
207,43.62,6.85,32.4,-2.29,0.35,3.45,650.0,620.0,569.0,567.0,506.0,2,1
208,7.42,2.54,4.76,-1.82,0.08,0.6,651.0,622.0,571.0,567.0,504.0,2,1
209,5.6,-2.8,6.98,-2.12,0.31,1.08,650.0,623.0,568.0,567.0,506.0,2,1
210,1.51,-1.73,0.51,-0.57,0.15,0.47,652.0,622.0,569.0,568.0,507.0,2,1
211,2.7,-1.24,2.15,1.06,-0.16,-0.39,652.0,622.0,569.0,568.0,508.0,2,1
212,2.82,-1.58,7.61,3.68,-0.09,-1.82,651.0,622.0,572.0,569.0,508.0,2,1
213,9.67,32.98,13.58,-6.28,1.78,3.11,651.0,622.0,570.0,568.0,508.0,2,1
214,12.34,4.54,4.41,-0.71,-1.24,-0.01,651.0,622.0,575.0,568.0,505.0,2,1
215,5.33,-0.4,6.8,-2.26,0.53,1.52,651.0,623.0,573.0,568.0,507.0,2,1
216,2.1,-1.65,1.84,-1.05,0.04,0.79,651.0,622.0,570.0,568.0,507.0,2,1
217,2.05,-0.74,1.88,0.04,0.13,0.13,650.0,623.0,569.0,569.0,508.0,2,1
218,2.71,-1.4,4.78,2.06,0.16,-0.99,651.0,624.0,570.0,569.0,508.0,2,1
219,5.05,2.67,10.56,4.47,0.42,-2.11,649.0,623.0,577.0,568.0,508.0,2,1
220,7.86,-1.7,23.03,-1.21,1.05,0.43,649.0,621.0,568.0,565.0,504.0,2,1
221,3.24,1.19,5.98,-2.41,-0.39,1.37,651.0,623.0,571.0,567.0,504.0,2,1
222,2.34,-2.61,3.09,-1.5,0.83,1.13,651.0,622.0,567.0,568.0,507.0,2,1
223,0.81,-1.71,-0.22,-0.17,-0.16,0.09,650.0,623.0,568.0,569.0,507.0,2,1
224,1.62,-0.26,1.31,1.31,-0.21,-0.78,650.0,623.0,569.0,569.0,508.0,2,1
225,3.56,-0.16,9.56,3.27,0.53,-1.76,650.0,622.0,572.0,568.0,508.0,2,1
226,34.92,-11.34,40.06,-7.62,-2.52,2.33,650.0,620.0,567.0,569.0,508.0,2,1
227,9.0,2.36,4.67,-2.26,-1.01,0.81,650.0,621.0,569.0,567.0,505.0,2,1
228,2.67,-3.43,6.86,-2.54,0.37,1.76,651.0,622.0,565.0,568.0,507.0,2,1
229,0.84,-1.08,0.09,-0.68,0.02,0.63,650.0,622.0,567.0,569.0,507.0,2,1
230,2.01,-0.27,1.35,0.29,-0.28,-0.2,651.0,623.0,567.0,570.0,509.0,2,1
231,4.9,-3.98,10.21,3.38,0.31,-2.07,652.0,623.0,568.0,571.0,511.0,2,1
232,6.39,6.61,7.78,4.93,-0.84,-3.28,648.0,619.0,580.0,568.0,506.0,2,1
233,2.34,-2.36,11.17,-1.34,0.6,0.34,649.0,620.0,572.0,567.0,507.0,2,1
234,2.05,0.24,4.64,-2.2,-0.29,1.31,649.0,620.0,572.0,569.0,507.0,2,1
235,2.75,-1.55,3.89,-2.07,0.19,1.5,650.0,622.0,566.0,570.0,509.0,2,1
236,1.64,-0.82,1.51,-0.4,-0.23,0.41,652.0,622.0,567.0,571.0,511.0,2,1
237,3.43,-2.67,6.95,2.16,0.36,-1.23,652.0,623.0,566.0,572.0,511.0,2,1
238,5.23,-1.65,12.92,4.79,0.0,-3.22,650.0,620.0,573.0,566.0,507.0,2,1
239,22.28,9.18,10.18,-1.65,0.58,1.22,648.0,620.0,569.0,564.0,505.0,2,1
240,2.01,0.18,4.11,-2.46,0.75,1.65,650.0,620.0,570.0,567.0,505.0,2,1
241,3.94,-2.8,3.87,-2.63,-0.19,2.01,651.0,622.0,566.0,570.0,509.0,2,1
242,2.35,-2.62,1.45,-0.95,0.0,0.92,653.0,622.0,564.0,571.0,512.0,2,1
243,2.83,-3.46,4.72,1.75,-0.22,-1.13,653.0,623.0,565.0,571.0,512.0,2,1
244,5.28,-4.54,7.56,3.97,0.35,-2.98,651.0,621.0,569.0,568.0,509.0,2,1
245,7.88,7.56,-15.74,3.77,0.1,-2.17,647.0,614.0,578.0,567.0,503.0,2,1
246,10.4,-0.39,10.69,-2.07,-0.34,1.21,649.0,618.0,567.0,566.0,505.0,2,1
247,4.58,-2.2,5.36,-2.73,0.68,1.76,651.0,621.0,566.0,569.0,508.0,2,1
248,3.57,-3.22,3.9,-1.41,-0.17,0.91,652.0,623.0,562.0,570.0,509.0,2,1
249,2.87,-1.82,2.77,0.72,-0.36,-0.36,652.0,623.0,565.0,570.0,511.0,2,1
250,4.04,-2.29,5.6,2.49,-0.59,-1.87,652.0,623.0,568.0,570.0,509.0,2,1
251,6.48,-2.74,11.71,5.32,-0.19,-3.4,647.0,619.0,575.0,568.0,508.0,2,1
252,8.29,-8.99,14.3,-3.16,0.65,1.84,646.0,619.0,575.0,567.0,507.0,2,1
253,6.26,-0.49,6.16,-2.59,0.12,1.66,649.0,620.0,569.0,569.0,507.0,2,1
254,3.27,-3.35,5.77,-2.48,0.23,1.72,651.0,622.0,565.0,570.0,510.0,2,1
255,3.39,-2.88,3.18,-0.86,-0.21,0.98,652.0,623.0,564.0,571.0,511.0,2,1
256,4.22,-3.05,4.97,1.52,-0.39,-0.78,652.0,624.0,564.0,570.0,511.0,2,1
257,4.99,-6.79,10.38,4.46,0.59,-3.05,651.0,623.0,569.0,567.0,509.0,2,1
258,9.06,40.37,5.94,-6.14,0.75,3.62,646.0,617.0,572.0,567.0,507.0,2,1
259,11.52,3.06,6.05,-1.68,-0.0,1.24,647.0,618.0,570.0,565.0,506.0,2,1
260,3.75,-4.42,5.11,-1.97,0.23,1.44,650.0,621.0,569.0,568.0,508.0,2,1
261,2.43,-1.92,4.23,-0.73,-0.24,0.62,650.0,622.0,566.0,568.0,509.0,2,1
262,4.03,-1.13,3.1,-0.04,-0.19,-0.1,651.0,622.0,569.0,570.0,510.0,2,1
263,5.75,-2.77,8.72,2.27,0.37,-1.55,651.0,621.0,569.0,570.0,511.0,2,1
264,6.06,6.61,7.86,5.56,-2.32,-3.49,646.0,615.0,578.0,565.0,505.0,2,1
265,-2.17,0.82,8.84,-2.36,1.54,1.45,646.0,618.0,571.0,564.0,506.0,2,1
266,2.14,-2.23,6.05,-2.98,0.6,1.83,650.0,620.0,568.0,568.0,508.0,2,1
267,4.16,-2.7,3.83,-1.56,-0.31,0.88,651.0,622.0,565.0,569.0,510.0,2,1
268,2.65,-1.93,3.21,0.46,-0.29,-0.3,651.0,623.0,566.0,570.0,511.0,2,1
269,3.21,-1.58,4.93,2.75,0.23,-1.58,650.0,623.0,569.0,570.0,511.0,2,1
270,6.38,1.46,11.24,5.31,-0.5,-2.51,646.0,617.0,576.0,566.0,506.0,2,1
271,12.63,3.79,7.06,-2.76,1.81,1.65,647.0,617.0,569.0,564.0,506.0,2,1
272,5.26,-0.77,6.27,-2.81,0.39,1.51,649.0,620.0,568.0,566.0,507.0,2,1
273,4.25,-2.99,5.47,-2.7,0.08,1.59,649.0,621.0,561.0,566.0,507.0,2,1
274,2.78,-2.63,3.03,-0.51,-0.01,0.49,651.0,623.0,562.0,567.0,509.0,2,1
275,2.64,-2.02,3.56,2.16,-0.12,-1.16,651.0,623.0,565.0,567.0,509.0,2,1
276,4.05,-3.11,9.34,4.61,0.43,-2.91,648.0,620.0,571.0,566.0,509.0,2,1
277,13.37,30.28,16.85,-8.23,0.34,2.74,646.0,615.0,568.0,564.0,507.0,2,1
278,10.73,1.43,4.83,-1.85,-0.99,0.65,646.0,617.0,570.0,564.0,506.0,2,1
279,6.33,-1.02,6.38,-2.69,-0.01,1.89,649.0,620.0,565.0,566.0,507.0,2,1
280,3.2,-2.72,4.15,-1.21,0.32,0.96,650.0,622.0,562.0,566.0,509.0,2,1
281,3.28,-2.55,4.16,0.88,-0.06,-0.39,651.0,623.0,565.0,566.0,510.0,2,1
282,4.7,-3.93,7.86,3.46,0.53,-2.39,650.0,621.0,568.0,565.0,511.0,2,1
283,7.98,4.38,1.58,5.48,-1.43,-3.45,643.0,607.0,581.0,569.0,511.0,2,1
284,-0.09,2.81,5.67,-1.25,1.16,0.53,645.0,617.0,572.0,563.0,506.0,2,1
285,3.82,0.13,6.7,-2.91,0.36,1.26,647.0,617.0,567.0,564.0,507.0,2,1
286,1.9,-2.84,4.19,-1.97,-0.46,1.1,650.0,620.0,564.0,566.0,510.0,2,1
287,4.41,-2.72,3.6,-0.65,-0.34,0.26,652.0,622.0,562.0,568.0,511.0,2,1
288,5.22,-3.52,7.36,1.94,-0.22,-1.13,651.0,622.0,563.0,566.0,511.0,2,1
289,3.53,-6.09,12.44,6.45,0.25,-3.27,647.0,616.0,575.0,563.0,508.0,2,1
290,11.87,6.28,8.88,-2.89,0.86,1.72,644.0,616.0,573.0,563.0,506.0,2,1
291,6.62,1.78,5.75,-2.72,-0.08,1.72,648.0,617.0,571.0,565.0,507.0,2,1
292,3.14,-2.22,6.08,-2.96,0.95,1.88,648.0,620.0,563.0,565.0,509.0,2,1
293,1.6,-2.72,1.82,-0.87,-0.21,0.65,650.0,621.0,562.0,568.0,512.0,2,1
294,2.26,-2.65,4.17,1.46,-0.22,-0.81,652.0,621.0,564.0,568.0,513.0,2,1
295,5.76,-7.61,9.82,4.31,0.56,-2.92,649.0,620.0,567.0,566.0,510.0,2,1
296,-4.3,69.2,11.55,0.56,-1.55,-0.45,645.0,614.0,570.0,565.0,504.0,2,1
297,9.62,1.64,7.24,-2.37,-0.5,1.32,647.0,616.0,568.0,565.0,506.0,2,1
298,3.89,-2.15,4.42,-3.0,-0.43,1.94,649.0,619.0,566.0,568.0,509.0,2,1
299,2.16,-3.47,3.31,-2.06,0.27,1.49,652.0,621.0,559.0,569.0,513.0,2,1
300,6.25,1.06,6.4,-0.09,-0.04,0.01,634.0,602.0,556.0,561.0,491.0,3,1
301,6.6,1.24,6.37,-0.12,-0.11,-0.11,635.0,601.0,556.0,561.0,491.0,3,1
302,6.26,1.48,6.4,-0.21,0.04,-0.12,635.0,603.0,555.0,559.0,493.0,3,1
303,6.48,0.48,6.43,-0.06,-0.14,-0.29,636.0,601.0,556.0,556.0,494.0,3,1
304,6.05,0.98,6.68,0.17,-0.34,-0.48,638.0,601.0,556.0,550.0,494.0,3,1
305,6.66,2.52,6.34,-0.05,-0.26,-0.33,637.0,602.0,556.0,543.0,496.0,3,1
306,9.29,4.0,8.26,-0.64,0.38,-0.1,638.0,603.0,557.0,553.0,498.0,3,1
307,8.75,3.47,7.06,-1.55,-0.09,0.41,639.0,605.0,558.0,555.0,503.0,3,1
308,6.44,-0.44,5.15,-1.86,0.03,0.77,639.0,606.0,559.0,557.0,504.0,3,1
309,4.49,-1.83,4.12,-1.96,0.94,0.83,641.0,609.0,556.0,558.0,505.0,3,1
310,3.6,-4.01,5.16,-0.45,0.8,0.33,641.0,609.0,551.0,558.0,505.0,3,1
311,2.16,-3.09,3.4,1.67,0.04,-1.13,641.0,609.0,554.0,559.0,506.0,3,1
312,3.47,-0.59,4.99,4.57,-0.34,-2.66,639.0,608.0,557.0,560.0,507.0,3,1
313,31.74,-26.51,29.91,-3.59,4.77,1.91,634.0,603.0,551.0,558.0,508.0,3,1
314,5.49,7.34,2.47,-0.91,-0.52,0.36,640.0,608.0,559.0,559.0,505.0,3,1
315,7.01,-1.09,10.02,-2.61,0.16,1.33,637.0,609.0,553.0,559.0,505.0,3,1
316,1.52,-1.25,2.83,-1.94,-0.22,0.87,637.0,610.0,551.0,559.0,507.0,3,1
317,1.07,-2.15,1.07,-0.3,-0.1,-0.04,635.0,610.0,549.0,559.0,506.0,3,1
318,1.43,-1.33,2.91,1.88,-0.12,-1.13,635.0,609.0,550.0,559.0,506.0,3,1
319,3.34,0.23,8.46,4.04,1.67,-1.65,636.0,609.0,555.0,559.0,506.0,3,1
320,16.06,-22.46,27.66,-3.47,2.14,2.4,632.0,609.0,553.0,558.0,506.0,3,1
321,2.6,2.06,6.22,-2.44,0.44,1.37,637.0,611.0,557.0,561.0,506.0,3,1
322,2.71,-1.83,4.4,-2.08,0.38,1.26,634.0,610.0,552.0,560.0,506.0,3,1
323,0.55,-0.4,-0.22,-0.67,-0.16,0.36,634.0,610.0,552.0,561.0,507.0,3,1
324,1.63,-0.09,1.56,1.23,-0.34,-0.66,633.0,611.0,551.0,562.0,507.0,3,1
325,3.68,-0.72,6.11,3.54,0.39,-1.32,634.0,610.0,554.0,561.0,507.0,3,1
326,6.39,5.88,11.44,4.25,0.69,-1.73,637.0,608.0,562.0,563.0,509.0,3,1
327,7.91,3.4,7.75,-0.79,-1.13,-0.3,637.0,611.0,558.0,559.0,504.0,3,1
328,7.15,-0.21,8.75,-2.84,-0.04,1.29,636.0,613.0,553.0,561.0,506.0,3,1
329,2.08,-0.84,2.2,-1.66,0.37,0.87,636.0,612.0,551.0,562.0,506.0,3,1
330,2.18,-1.69,0.66,-0.45,-0.11,0.55,635.0,613.0,550.0,562.0,507.0,3,1
331,1.69,-2.76,4.43,1.75,0.57,-0.4,632.0,613.0,550.0,562.0,508.0,3,1
332,4.05,-0.4,11.63,5.94,0.48,-2.51,632.0,610.0,555.0,562.0,508.0,3,1
333,20.3,52.76,19.82,-1.65,-3.32,2.41,632.0,611.0,556.0,560.0,506.0,3,1
334,4.79,0.64,5.93,-3.17,0.54,1.33,633.0,612.0,556.0,562.0,507.0,3,1
335,1.59,-9.46,0.87,-2.93,0.93,1.27,632.0,614.0,550.0,563.0,508.0,3,1
336,-0.59,-1.02,1.68,-1.01,0.22,0.58,630.0,615.0,547.0,563.0,509.0,3,1
337,1.44,-1.68,2.86,1.74,-0.08,-0.79,631.0,615.0,550.0,565.0,510.0,3,1
338,2.32,-1.43,9.0,3.93,1.12,-1.59,631.0,615.0,554.0,564.0,509.0,3,1
339,8.47,7.15,11.84,3.99,-1.3,-1.69,635.0,612.0,564.0,563.0,507.0,3,1
340,1.36,0.9,11.97,-2.44,-1.2,0.62,634.0,614.0,560.0,563.0,506.0,3,1
341,4.63,-1.36,5.38,-3.5,0.21,1.73,635.0,615.0,555.0,563.0,507.0,3,1
342,2.42,-2.94,3.61,-2.97,0.22,1.46,632.0,616.0,546.0,564.0,509.0,3,1
343,1.83,-2.03,1.23,0.06,0.03,0.15,630.0,616.0,546.0,564.0,510.0,3,1
344,1.77,-1.65,4.47,3.42,-0.0,-1.45,628.0,616.0,548.0,564.0,508.0,3,1
345,4.29,-6.72,13.64,4.97,0.77,-2.45,626.0,610.0,552.0,561.0,508.0,3,1
346,54.37,-40.26,26.86,-4.64,-2.92,2.3,625.0,606.0,553.0,561.0,509.0,3,1
347,3.4,2.88,3.66,-2.51,0.9,0.94,628.0,610.0,553.0,559.0,506.0,3,1
348,4.38,1.21,5.48,-2.87,1.11,1.06,627.0,613.0,548.0,561.0,507.0,3,1
349,2.25,-2.0,3.13,-1.25,-0.13,0.82,628.0,615.0,547.0,563.0,509.0,3,1
350,2.49,-1.94,4.8,1.56,0.53,-0.19,628.0,615.0,548.0,563.0,510.0,3,1
351,2.68,-5.43,9.28,4.96,1.13,-1.77,627.0,612.0,553.0,563.0,510.0,3,1
352,-32.74,75.38,9.34,-5.02,6.38,-1.72,624.0,604.0,554.0,564.0,509.0,3,1
353,7.56,3.25,3.96,-1.83,-0.4,0.52,629.0,608.0,554.0,560.0,506.0,3,1
354,4.76,-1.3,8.39,-3.3,-0.31,1.28,628.0,612.0,551.0,562.0,507.0,3,1
355,1.47,-2.24,3.62,-2.32,-0.3,1.15,629.0,615.0,548.0,562.0,510.0,3,1
356,2.4,-3.11,4.88,0.02,0.09,0.21,626.0,614.0,545.0,563.0,511.0,3,1
357,2.76,-3.95,7.5,4.14,0.8,-1.48,624.0,612.0,547.0,563.0,511.0,3,1
358,4.98,2.69,5.34,6.81,-0.91,-2.42,626.0,606.0,554.0,562.0,507.0,3,1
359,1.06,-1.55,15.15,-1.7,-0.44,0.47,625.0,607.0,552.0,560.0,508.0,3,1
360,2.06,1.7,5.82,-3.01,0.3,1.05,628.0,612.0,552.0,563.0,508.0,3,1
361,2.43,-2.99,7.4,-2.22,0.09,1.02,628.0,613.0,548.0,563.0,510.0,3,1
362,2.77,-1.55,4.11,-0.28,0.22,0.36,628.0,614.0,548.0,563.0,510.0,3,1
363,2.97,-0.83,5.78,2.25,0.06,-0.72,627.0,613.0,549.0,562.0,510.0,3,1
364,2.78,-1.68,10.21,5.84,-0.34,-1.81,621.0,606.0,550.0,562.0,509.0,3,1
365,2.1,37.86,18.55,-0.54,1.32,0.96,623.0,606.0,551.0,560.0,507.0,3,1
366,3.44,1.42,6.38,-3.04,0.54,0.96,625.0,610.0,550.0,560.0,507.0,3,1
367,5.13,-3.9,8.0,-2.64,-0.56,1.0,625.0,612.0,546.0,561.0,509.0,3,1
368,0.63,-2.17,3.91,-0.68,0.05,0.51,627.0,614.0,546.0,562.0,509.0,3,1
369,2.57,-1.48,3.81,1.4,0.2,-0.34,626.0,614.0,547.0,562.0,509.0,3,1
370,2.09,-3.37,9.84,3.97,0.15,-1.83,622.0,607.0,548.0,562.0,509.0,3,1
371,-20.2,73.29,-0.06,3.65,1.36,-1.56,620.0,603.0,553.0,563.0,508.0,3,1
372,5.46,5.72,3.11,-2.19,-0.93,0.77,623.0,609.0,551.0,561.0,508.0,3,1
373,4.41,-2.84,9.0,-3.58,-0.69,1.35,626.0,612.0,547.0,561.0,509.0,3,1
374,1.61,-2.4,4.85,-1.71,0.44,1.1,626.0,615.0,545.0,561.0,509.0,3,1
375,2.63,-3.16,4.52,0.32,0.3,0.15,625.0,615.0,545.0,561.0,509.0,3,1
376,2.39,-4.77,6.99,3.96,0.69,-1.76,623.0,610.0,547.0,561.0,510.0,3,1
377,1.2,6.11,1.28,6.9,0.94,-2.57,622.0,603.0,551.0,560.0,508.0,3,1
378,1.58,-2.14,14.32,-1.61,0.33,0.34,621.0,605.0,551.0,560.0,508.0,3,1
379,2.15,0.58,5.88,-3.31,-0.38,1.22,626.0,612.0,551.0,561.0,509.0,3,1
380,3.49,-3.87,7.95,-2.42,0.12,1.02,625.0,613.0,546.0,562.0,510.0,3,1
381,2.66,-1.65,4.36,-0.49,-0.13,0.29,626.0,614.0,547.0,562.0,510.0,3,1
382,2.57,-1.5,5.06,1.69,0.35,-0.42,626.0,613.0,547.0,562.0,510.0,3,1
383,2.9,-2.45,10.86,5.47,0.01,-2.22,621.0,606.0,548.0,560.0,509.0,3,1
384,56.49,-38.81,40.96,-2.69,-8.73,3.12,623.0,604.0,548.0,559.0,508.0,3,1
385,6.43,1.99,6.89,-2.21,0.84,0.84,624.0,611.0,550.0,559.0,508.0,3,1
386,4.74,-4.14,9.9,-2.51,-0.03,0.7,625.0,611.0,547.0,560.0,509.0,3,1
387,0.21,-1.81,3.27,-0.94,0.24,0.48,626.0,613.0,549.0,561.0,510.0,3,1
388,2.68,-1.73,4.35,-0.08,0.36,0.49,625.0,616.0,548.0,563.0,510.0,3,1
389,3.27,-3.0,7.83,2.91,1.04,-0.7,624.0,614.0,548.0,562.0,510.0,3,1
390,4.92,0.67,8.33,8.73,-1.25,-3.67,622.0,600.0,548.0,560.0,508.0,3,1
391,-1.46,3.57,3.38,-0.23,3.64,-0.12,621.0,599.0,547.0,557.0,507.0,3,1
392,2.6,3.63,5.43,-1.65,-0.02,0.64,623.0,603.0,549.0,561.0,509.0,3,1
393,4.64,0.65,8.0,-1.34,0.0,0.44,623.0,606.0,548.0,561.0,509.0,3,1
394,3.5,-0.12,6.88,-0.91,-0.42,0.27,625.0,609.0,547.0,561.0,509.0,3,1
395,3.76,-1.97,8.97,0.62,0.44,-0.23,624.0,609.0,546.0,562.0,510.0,3,1
396,3.41,1.92,6.77,5.57,0.55,-1.93,622.0,601.0,548.0,561.0,510.0,3,1
397,2.34,3.06,8.64,-1.82,1.79,0.89,624.0,604.0,550.0,560.0,510.0,3,1
398,2.27,0.49,8.43,-3.02,-0.0,1.1,626.0,610.0,550.0,562.0,511.0,3,1
399,2.11,-3.37,7.52,-2.07,-0.02,0.63,624.0,612.0,545.0,561.0,511.0,3,1
400,2.07,-1.46,4.07,-0.63,-0.4,0.29,626.0,612.0,546.0,562.0,511.0,3,1
401,2.17,0.27,5.16,1.12,0.62,-0.1,625.0,614.0,547.0,563.0,512.0,3,1
402,2.56,-1.89,11.48,4.82,0.38,-1.64,623.0,609.0,549.0,562.0,512.0,3,1
403,14.73,-1.83,27.27,-3.29,2.28,2.18,625.0,609.0,552.0,562.0,510.0,3,1
404,4.03,0.62,7.39,-2.48,0.54,0.7,626.0,611.0,551.0,562.0,510.0,3,1
405,2.24,-3.11,7.51,-2.44,-0.54,0.73,626.0,614.0,547.0,563.0,511.0,3,1
406,1.7,-2.47,3.56,-0.37,-0.05,0.11,626.0,614.0,547.0,564.0,512.0,3,1
407,1.74,-0.9,2.95,1.4,0.41,-0.3,626.0,614.0,549.0,564.0,512.0,3,1
408,4.18,-4.23,12.5,4.21,0.49,-1.37,625.0,608.0,546.0,563.0,512.0,3,1
409,3.48,-3.38,11.91,-7.01,-8.73,1.77,626.0,605.0,551.0,563.0,511.0,3,1
410,12.6,1.74,7.01,-2.21,-1.45,0.46,629.0,610.0,552.0,562.0,510.0,3,1
411,4.98,0.36,7.22,-2.36,0.13,0.83,630.0,614.0,550.0,563.0,512.0,3,1
412,2.22,-2.02,4.68,-1.28,0.31,0.73,629.0,615.0,548.0,564.0,512.0,3,1
413,2.41,-1.79,3.99,0.49,0.17,0.06,631.0,616.0,548.0,563.0,512.0,3,1
414,1.13,1.51,3.25,3.07,0.79,-0.88,628.0,614.0,550.0,563.0,512.0,3,1
415,4.17,1.93,7.6,4.53,-0.61,-1.53,627.0,608.0,554.0,563.0,511.0,3,1
416,1.19,-3.67,11.54,-1.09,1.37,-0.0,628.0,611.0,553.0,561.0,509.0,3,1
417,2.66,-1.55,8.79,-3.06,-0.39,0.82,629.0,614.0,553.0,564.0,510.0,3,1
418,3.44,-3.68,6.9,-2.28,-0.32,0.85,629.0,615.0,548.0,563.0,512.0,3,1
419,1.96,-2.48,3.49,-0.35,-0.13,0.27,629.0,617.0,549.0,564.0,513.0,3,1
420,1.9,-1.93,4.93,1.67,0.42,-0.3,630.0,617.0,552.0,564.0,513.0,3,1
421,3.88,-3.62,13.58,5.42,1.04,-1.35,628.0,610.0,552.0,563.0,512.0,3,1
422,45.14,-33.22,21.14,-2.55,-1.57,1.33,629.0,605.0,553.0,563.0,511.0,3,1
423,7.06,0.71,5.99,-2.42,0.35,0.82,630.0,611.0,555.0,563.0,511.0,3,1
424,2.6,-4.07,7.78,-3.23,-0.23,1.07,629.0,614.0,552.0,563.0,512.0,3,1
425,1.42,-1.81,3.05,-1.7,-0.21,0.59,631.0,617.0,555.0,564.0,514.0,3,1
426,1.64,-1.69,3.7,0.3,0.04,0.06,630.0,617.0,558.0,566.0,515.0,3,1
427,2.57,-3.78,8.33,3.85,1.01,-0.99,628.0,615.0,558.0,565.0,514.0,3,1
428,3.77,2.5,13.97,6.07,-2.11,-2.3,629.0,609.0,557.0,564.0,511.0,3,1
429,-2.78,-2.21,14.69,-2.32,1.23,0.52,630.0,612.0,557.0,563.0,510.0,3,1
430,2.53,-0.45,5.94,-2.41,0.2,0.78,630.0,613.0,558.0,564.0,512.0,3,1
431,1.79,-1.15,6.01,-2.29,0.28,0.88,629.0,616.0,559.0,566.0,514.0,3,1
432,2.41,-1.3,4.45,-0.45,0.06,0.38,630.0,618.0,560.0,567.0,514.0,3,1
433,2.87,-2.73,7.24,2.32,0.59,-0.52,628.0,618.0,560.0,566.0,515.0,3,1
434,4.52,-0.12,13.27,6.27,-1.27,-2.15,627.0,609.0,553.0,564.0,511.0,3,1
435,1.45,1.03,14.67,-3.1,2.57,1.08,627.0,611.0,555.0,562.0,510.0,3,1
436,3.55,-0.58,5.6,-3.15,0.27,1.36,629.0,614.0,557.0,563.0,511.0,3,1
437,1.94,-2.62,5.88,-2.74,-0.2,1.17,628.0,616.0,558.0,564.0,513.0,3,1
438,1.77,-2.02,3.65,-0.53,-0.07,0.38,630.0,619.0,561.0,566.0,515.0,3,1
439,2.82,-2.62,5.81,2.13,0.39,-0.55,629.0,618.0,561.0,566.0,514.0,3,1
440,3.87,-3.89,10.97,5.65,0.75,-1.96,628.0,612.0,557.0,566.0,514.0,3,1
441,25.63,-12.82,31.24,-4.61,-8.73,2.71,629.0,607.0,556.0,566.0,513.0,3,1
442,7.07,2.24,7.45,-2.3,-0.37,0.7,629.0,613.0,558.0,563.0,511.0,3,1
443,3.42,0.19,8.22,-2.95,-0.05,1.14,629.0,616.0,559.0,564.0,512.0,3,1
444,1.86,-2.84,5.41,-1.31,-0.05,0.71,630.0,619.0,562.0,563.0,513.0,3,1
445,2.68,-2.4,5.43,0.53,-0.07,-0.14,630.0,619.0,561.0,564.0,514.0,3,1
446,4.17,-3.2,7.65,3.43,0.4,-1.53,628.0,615.0,558.0,565.0,514.0,3,1
447,5.57,3.72,9.43,5.35,-0.84,-2.19,627.0,609.0,555.0,564.0,510.0,3,1
448,-1.08,-1.18,14.71,-2.81,0.43,0.92,628.0,612.0,558.0,563.0,511.0,3,1
449,2.45,0.69,6.78,-2.68,0.38,0.79,628.0,615.0,560.0,564.0,513.0,3,1
450,6.85,-0.26,6.76,-0.02,-0.04,-0.4,630.0,581.0,550.0,568.0,512.0,4,1
451,6.73,0.47,6.61,-0.12,0.1,-0.35,629.0,581.0,550.0,568.0,512.0,4,1
452,7.16,0.28,6.62,-0.11,-0.12,-0.35,630.0,581.0,550.0,568.0,512.0,4,1
453,6.73,-0.54,6.65,-0.04,0.01,-0.35,630.0,581.0,550.0,567.0,512.0,4,1
454,7.03,-0.44,5.94,0.02,-0.04,-0.32,630.0,581.0,549.0,567.0,512.0,4,1
455,7.17,-0.15,6.05,0.18,-0.16,-0.31,630.0,580.0,548.0,567.0,510.0,4,1
456,8.16,0.28,7.82,0.21,-0.03,-0.17,631.0,579.0,549.0,565.0,507.0,4,1
457,9.17,1.63,8.97,-0.77,0.13,0.27,631.0,579.0,548.0,564.0,509.0,4,1
458,9.5,-0.08,8.59,-1.38,-0.31,0.64,629.0,579.0,547.0,564.0,510.0,4,1
459,5.95,-1.05,4.73,-1.56,0.52,0.93,629.0,578.0,548.0,564.0,511.0,4,1
460,3.09,-1.44,1.81,-1.66,0.84,0.9,628.0,579.0,548.0,566.0,511.0,4,1
461,2.9,-2.26,2.01,-0.57,-0.11,0.2,627.0,577.0,545.0,565.0,511.0,4,1
462,3.2,-2.47,2.48,1.73,-0.14,-1.02,626.0,578.0,548.0,566.0,513.0,4,1
463,3.96,-1.89,6.74,4.85,0.54,-2.4,626.0,577.0,549.0,567.0,514.0,4,1
464,1.25,46.95,16.85,-7.53,2.61,4.04,630.0,575.0,549.0,563.0,514.0,4,1
465,4.69,1.7,5.55,-0.38,-0.4,0.01,629.0,579.0,548.0,563.0,513.0,4,1
466,6.51,0.13,7.16,-2.02,-0.4,1.16,628.0,580.0,549.0,565.0,514.0,4,1
467,2.84,-0.76,3.14,-1.26,-0.04,0.81,628.0,579.0,548.0,565.0,514.0,4,1
468,1.2,-0.76,1.55,-0.74,0.35,0.35,628.0,578.0,547.0,567.0,514.0,4,1
469,2.22,-2.12,3.72,0.89,-0.44,-1.0,627.0,576.0,548.0,566.0,514.0,4,1
470,4.91,-1.73,8.71,3.75,0.7,-2.27,626.0,577.0,549.0,567.0,514.0,4,1
471,60.31,-24.72,23.51,-2.8,-2.78,3.02,626.0,577.0,547.0,566.0,516.0,4,1
472,6.42,4.13,2.02,-0.92,-0.62,0.47,630.0,583.0,551.0,565.0,513.0,4,1
473,5.77,-0.43,6.56,-2.2,0.34,1.41,627.0,578.0,549.0,566.0,515.0,4,1
474,2.19,-0.73,0.45,-1.12,0.06,0.85,625.0,578.0,549.0,567.0,514.0,4,1
475,1.62,-1.09,1.7,0.16,0.71,0.15,626.0,577.0,549.0,567.0,516.0,4,1
476,2.91,-1.75,5.54,2.89,0.17,-1.2,626.0,577.0,550.0,568.0,516.0,4,1
477,6.94,2.93,12.41,5.13,0.9,-1.84,629.0,581.0,550.0,567.0,514.0,4,1
478,6.38,-1.22,15.68,-0.75,0.07,-0.06,627.0,576.0,547.0,563.0,512.0,4,1
479,5.78,0.84,6.55,-2.93,0.39,1.21,629.0,578.0,549.0,566.0,514.0,4,1
480,3.0,-1.12,2.86,-2.11,-0.15,0.93,626.0,578.0,547.0,566.0,516.0,4,1
481,2.83,-0.74,0.55,-0.72,-0.78,0.49,625.0,578.0,547.0,568.0,515.0,4,1
482,1.46,-1.9,2.94,1.74,0.02,-0.68,624.0,578.0,547.0,567.0,516.0,4,1
483,3.2,-1.83,7.8,4.28,0.65,-1.66,626.0,578.0,549.0,568.0,516.0,4,1
484,-15.04,41.5,27.59,-7.06,2.07,0.11,627.0,575.0,546.0,567.0,516.0,4,1
485,6.07,3.58,5.47,-1.08,-0.73,0.13,630.0,581.0,550.0,564.0,513.0,4,1
486,5.2,-0.54,6.45,-2.92,-0.26,1.29,628.0,579.0,549.0,566.0,515.0,4,1
487,1.79,-0.82,-0.06,-1.66,-0.01,0.86,627.0,578.0,548.0,567.0,515.0,4,1
488,2.37,-0.01,0.61,-0.16,0.24,0.33,625.0,578.0,548.0,568.0,516.0,4,1
489,2.18,-2.18,5.47,2.72,0.13,-1.01,625.0,579.0,549.0,568.0,517.0,4,1
490,3.27,-0.41,14.56,4.32,0.39,-1.49,628.0,582.0,550.0,568.0,516.0,4,1
491,31.72,15.24,19.03,-0.76,-1.51,-0.0,625.0,575.0,546.0,566.0,515.0,4,1
492,3.7,3.78,3.33,-1.97,-0.31,0.5,630.0,581.0,550.0,567.0,513.0,4,1
493,3.66,-0.25,4.25,-2.81,-0.58,1.47,629.0,580.0,550.0,568.0,514.0,4,1
494,-0.3,-3.71,0.08,-1.91,0.14,0.97,626.0,580.0,551.0,568.0,517.0,4,1
495,2.28,-2.87,3.92,0.77,-0.12,-0.31,624.0,576.0,551.0,569.0,517.0,4,1
496,2.33,-4.39,9.59,4.9,0.87,-2.22,623.0,578.0,548.0,569.0,516.0,4,1
497,-18.59,70.43,11.48,1.52,2.5,-0.83,624.0,571.0,547.0,568.0,514.0,4,1
498,6.49,2.49,6.96,-1.54,-1.17,0.4,627.0,579.0,548.0,565.0,513.0,4,1
499,5.53,-1.07,6.0,-2.72,-0.35,1.31,626.0,577.0,549.0,567.0,514.0,4,1
500,0.39,-1.35,-0.11,-1.72,0.28,0.84,624.0,577.0,550.0,568.0,516.0,4,1
501,2.99,-0.26,0.71,-0.38,0.4,0.07,623.0,577.0,551.0,569.0,517.0,4,1
502,3.03,-2.46,5.8,2.95,0.37,-1.65,624.0,578.0,551.0,569.0,518.0,4,1
503,5.72,2.02,14.34,4.94,0.63,-1.86,629.0,582.0,551.0,567.0,514.0,4,1
504,5.47,-5.8,21.26,-2.36,-0.24,0.62,626.0,578.0,550.0,564.0,514.0,4,1
505,3.76,-0.62,7.41,-3.1,0.06,1.12,628.0,581.0,552.0,568.0,514.0,4,1
506,2.23,-2.16,2.02,-2.47,0.55,1.13,624.0,581.0,552.0,568.0,517.0,4,1
507,1.46,-1.27,0.04,-0.64,-0.0,0.31,624.0,579.0,553.0,569.0,519.0,4,1
508,2.08,-1.65,3.32,2.53,0.09,-1.04,625.0,578.0,553.0,570.0,518.0,4,1
509,3.62,-3.42,13.53,5.61,0.81,-2.26,625.0,580.0,550.0,567.0,517.0,4,1
510,31.98,6.63,30.8,-3.67,0.18,2.61,627.0,580.0,552.0,567.0,516.0,4,1
511,10.47,2.22,5.46,-2.61,-0.8,0.78,628.0,582.0,552.0,566.0,514.0,4,1
512,5.05,-0.4,4.48,-2.63,0.19,1.39,623.0,579.0,550.0,567.0,516.0,4,1
513,0.27,-1.59,-0.77,-1.14,0.26,0.86,622.0,579.0,550.0,568.0,517.0,4,1
514,1.49,-0.44,0.22,0.1,0.46,0.19,622.0,578.0,550.0,569.0,518.0,4,1
515,3.9,-3.7,6.59,3.4,-0.33,-1.48,622.0,578.0,551.0,569.0,518.0,4,1
516,7.52,1.97,14.16,5.66,-0.2,-1.74,627.0,582.0,550.0,567.0,514.0,4,1
517,5.62,-3.37,19.84,-1.71,-0.34,0.59,623.0,578.0,549.0,565.0,513.0,4,1
518,2.96,0.46,5.26,-2.92,-0.12,1.43,627.0,581.0,550.0,567.0,514.0,4,1
519,2.91,-1.89,3.34,-2.65,-0.14,1.1,624.0,580.0,551.0,567.0,516.0,4,1
520,1.51,-1.62,0.49,-1.74,-0.42,0.58,625.0,580.0,554.0,570.0,517.0,4,1
521,1.89,-3.12,3.51,1.21,0.29,-0.44,624.0,579.0,554.0,569.0,520.0,4,1
522,2.94,-4.24,9.48,5.73,0.73,-2.57,623.0,578.0,551.0,570.0,519.0,4,1
523,-19.44,78.45,12.64,-1.6,2.03,0.74,622.0,576.0,549.0,566.0,514.0,4,1
524,7.29,1.24,8.15,-1.03,0.4,0.44,624.0,582.0,551.0,566.0,514.0,4,1
525,3.82,-0.31,5.19,-3.35,0.42,1.6,625.0,583.0,553.0,567.0,516.0,4,1
526,2.15,-2.1,2.06,-2.75,0.04,0.97,623.0,580.0,552.0,568.0,517.0,4,1
527,2.23,-1.91,1.38,-1.14,-0.28,-0.05,623.0,581.0,555.0,569.0,519.0,4,1
528,3.38,-2.93,4.18,2.53,-0.08,-1.47,623.0,580.0,554.0,569.0,521.0,4,1
529,1.89,-1.11,7.79,7.07,0.82,-2.6,624.0,583.0,551.0,568.0,518.0,4,1
530,4.99,59.77,42.83,-3.09,3.66,2.58,623.0,577.0,548.0,567.0,517.0,4,1
531,7.85,5.03,1.73,-1.3,-0.79,0.53,627.0,583.0,552.0,566.0,514.0,4,1
532,4.4,-1.87,5.59,-3.4,1.24,1.95,624.0,580.0,552.0,567.0,515.0,4,1
533,1.16,-3.01,-0.03,-1.46,-0.09,1.14,625.0,581.0,553.0,569.0,519.0,4,1
534,1.67,-3.11,3.14,0.61,-0.03,-0.29,624.0,580.0,554.0,570.0,520.0,4,1
535,3.0,-4.8,9.5,4.7,0.51,-2.26,623.0,578.0,553.0,570.0,520.0,4,1
536,9.37,7.76,5.13,5.68,0.84,-2.17,631.0,590.0,556.0,570.0,518.0,4,1
537,7.97,1.96,9.81,-1.46,-1.64,0.6,627.0,582.0,551.0,566.0,512.0,4,1
538,2.09,-0.47,5.27,-3.47,0.05,1.69,626.0,582.0,553.0,568.0,515.0,4,1
539,2.17,-2.02,1.98,-2.66,0.51,1.21,625.0,580.0,554.0,568.0,517.0,4,1
540,2.21,-2.1,1.09,-0.62,-0.04,0.27,625.0,580.0,554.0,569.0,519.0,4,1
541,1.69,-2.82,3.17,2.18,0.84,-0.64,625.0,581.0,555.0,569.0,518.0,4,1
542,4.15,-3.95,12.43,5.77,1.03,-2.1,624.0,580.0,554.0,570.0,518.0,4,1
543,36.83,23.65,32.28,-2.91,3.43,4.42,624.0,582.0,556.0,567.0,514.0,4,1
544,7.21,0.47,6.89,-2.79,-0.6,0.77,626.0,584.0,557.0,567.0,512.0,4,1
545,3.13,-3.75,6.31,-3.56,-0.0,1.11,625.0,583.0,558.0,567.0,514.0,4,1
546,2.08,-2.76,1.12,-1.34,-0.24,0.31,624.0,581.0,558.0,569.0,517.0,4,1
547,2.26,-1.68,1.31,1.17,0.21,-0.51,623.0,579.0,556.0,569.0,518.0,4,1
548,4.93,-4.08,7.19,5.46,0.78,-1.91,622.0,578.0,552.0,569.0,517.0,4,1
549,8.75,6.18,-0.19,6.89,1.41,-1.78,620.0,575.0,549.0,569.0,516.0,4,1
550,3.4,2.94,8.68,-0.76,-0.68,-0.03,623.0,580.0,547.0,564.0,511.0,4,1
551,3.42,0.05,5.91,-2.84,-0.09,1.29,623.0,579.0,548.0,567.0,512.0,4,1
552,2.04,-1.77,1.69,-2.05,-0.11,0.95,622.0,578.0,548.0,567.0,514.0,4,1
553,2.08,-2.27,1.66,-1.08,0.14,0.66,624.0,579.0,550.0,569.0,516.0,4,1
554,0.84,-2.98,4.67,1.08,0.63,-0.29,623.0,579.0,551.0,569.0,518.0,4,1
555,5.1,-6.82,16.04,6.89,0.77,-2.67,621.0,574.0,546.0,568.0,516.0,4,1
556,21.12,6.64,31.7,-3.47,2.39,3.22,622.0,578.0,548.0,567.0,513.0,4,1
557,8.31,1.86,4.1,-1.81,0.21,0.64,624.0,580.0,549.0,566.0,512.0,4,1
558,2.92,-0.74,3.39,-2.45,-0.28,1.17,624.0,580.0,549.0,567.0,513.0,4,1
559,-0.21,-2.33,-0.46,-1.78,0.73,1.09,623.0,580.0,551.0,568.0,516.0,4,1
560,2.12,-1.62,1.52,-0.22,0.2,0.17,624.0,580.0,551.0,570.0,518.0,4,1
561,4.73,-4.14,8.95,3.14,0.92,-1.38,623.0,578.0,551.0,570.0,519.0,4,1
562,9.54,4.74,10.05,6.85,-0.98,-2.77,627.0,588.0,551.0,569.0,511.0,4,1
563,4.93,-3.71,16.93,-2.25,0.54,0.85,622.0,581.0,547.0,565.0,512.0,4,1
564,3.19,0.66,3.66,-2.62,-0.59,1.0,624.0,583.0,551.0,567.0,514.0,4,1
565,3.53,-1.52,1.7,-2.48,-0.28,1.05,624.0,582.0,551.0,569.0,516.0,4,1
566,2.52,-2.76,0.78,-1.57,-0.16,0.88,624.0,582.0,553.0,568.0,517.0,4,1
567,3.43,-3.06,3.03,1.05,0.32,-0.37,622.0,582.0,552.0,570.0,519.0,4,1
568,3.68,-7.49,11.72,5.98,0.61,-2.56,622.0,579.0,549.0,569.0,518.0,4,1
569,-39.98,78.45,10.19,-3.79,6.34,-0.63,620.0,574.0,545.0,568.0,515.0,4,1
570,6.84,3.95,4.84,-1.11,-0.85,0.31,624.0,581.0,547.0,566.0,514.0,4,1
571,6.52,-0.37,7.38,-3.14,-0.66,1.49,624.0,581.0,548.0,568.0,516.0,4,1
572,0.34,-2.25,0.4,-2.14,0.58,1.2,624.0,582.0,550.0,568.0,517.0,4,1
573,3.61,-2.04,1.35,-0.97,-0.58,0.68,624.0,581.0,550.0,569.0,518.0,4,1
574,2.7,-3.94,5.4,1.94,0.47,-0.73,625.0,582.0,552.0,570.0,520.0,4,1
575,4.89,-6.27,14.82,7.07,0.51,-3.07,621.0,580.0,546.0,568.0,518.0,4,1
576,71.19,-61.47,32.62,-5.06,-3.59,3.99,621.0,586.0,548.0,568.0,516.0,4,1
577,9.0,2.85,4.92,-2.46,-0.05,1.08,623.0,586.0,548.0,567.0,514.0,4,1
578,4.92,-2.31,4.06,-3.76,0.57,1.79,622.0,587.0,551.0,568.0,517.0,4,1
579,-0.42,-3.65,0.0,-2.83,0.64,1.38,622.0,585.0,552.0,570.0,519.0,4,1
580,1.5,-3.08,2.0,0.2,0.13,-0.14,621.0,583.0,552.0,570.0,521.0,4,1
581,1.58,-2.76,6.65,4.6,0.35,-2.43,621.0,583.0,552.0,570.0,520.0,4,1
582,9.2,3.98,9.85,7.87,0.65,-2.97,623.0,590.0,550.0,568.0,514.0,4,1
583,5.39,-5.33,21.68,-2.84,-1.28,0.77,622.0,583.0,546.0,563.0,513.0,4,1
584,1.07,1.21,4.03,-4.21,-0.19,1.76,623.0,585.0,549.0,565.0,514.0,4,1
585,2.31,-2.66,2.82,-3.48,-0.14,1.47,622.0,583.0,550.0,566.0,517.0,4,1
586,2.28,-1.92,0.21,-0.87,-0.25,0.43,623.0,582.0,551.0,568.0,518.0,4,1
587,2.74,-3.1,2.95,2.42,0.17,-1.12,622.0,582.0,552.0,567.0,519.0,4,1
588,3.39,-6.82,12.72,7.4,1.16,-2.86,622.0,582.0,548.0,567.0,518.0,4,1
589,46.07,-2.86,23.05,-5.79,-8.73,5.54,619.0,582.0,543.0,566.0,516.0,4,1
590,9.67,3.51,6.1,-2.41,-0.66,1.03,619.0,581.0,542.0,563.0,513.0,4,1
591,4.77,-1.79,4.39,-3.54,0.13,1.78,617.0,582.0,544.0,565.0,515.0,4,1
592,-0.63,-2.94,-1.05,-2.2,0.14,0.98,618.0,581.0,546.0,568.0,517.0,4,1
593,1.33,-2.38,-0.03,-0.37,-0.03,-0.12,618.0,581.0,549.0,569.0,519.0,4,1
594,3.27,-4.57,8.14,4.22,0.09,-1.89,619.0,581.0,548.0,569.0,520.0,4,1
595,9.6,3.8,11.14,6.63,0.52,-2.12,624.0,588.0,547.0,567.0,512.0,4,1
596,3.3,-9.21,25.98,-2.92,-0.49,0.97,619.0,582.0,546.0,564.0,512.0,4,1
597,3.37,-0.41,5.27,-2.95,-0.39,0.91,619.0,583.0,549.0,566.0,512.0,4,1
598,1.88,-2.01,1.46,-2.89,0.41,0.94,618.0,581.0,548.0,569.0,516.0,4,1
599,-0.41,-2.0,-1.26,-1.44,-0.14,0.26,618.0,581.0,550.0,569.0,519.0,4,1
600,5.04,1.79,7.37,-0.03,-0.02,-0.01,625.0,586.0,546.0,572.0,491.0,5,1
601,5.31,1.82,7.26,-0.07,0.05,0.04,625.0,587.0,545.0,572.0,491.0,5,1
602,4.9,1.62,7.49,-0.13,0.19,0.08,624.0,587.0,544.0,573.0,490.0,5,1
603,4.44,1.58,7.51,-0.07,0.03,0.01,625.0,587.0,543.0,572.0,489.0,5,1
604,4.95,1.61,7.4,-0.02,-0.06,-0.03,625.0,585.0,542.0,570.0,490.0,5,1
605,4.76,1.59,7.33,0.07,-0.21,-0.07,625.0,583.0,539.0,568.0,492.0,5,1
606,5.31,1.66,7.66,-0.12,-0.3,-0.04,624.0,581.0,539.0,566.0,490.0,5,1
607,6.63,2.13,9.67,-0.02,-1.65,-0.02,625.0,584.0,540.0,562.0,496.0,5,1
608,6.73,4.12,10.7,-1.16,1.43,0.63,629.0,593.0,547.0,561.0,508.0,5,1
609,6.77,0.45,8.64,-2.93,-0.23,1.67,629.0,593.0,547.0,562.0,508.0,5,1
610,3.21,-2.64,4.44,-3.54,0.25,1.93,626.0,591.0,545.0,563.0,508.0,5,1
611,0.32,-3.76,0.39,-2.72,-0.31,1.29,624.0,585.0,544.0,563.0,510.0,5,1
612,0.63,-2.3,1.1,0.84,-0.68,-0.65,623.0,581.0,541.0,564.0,511.0,5,1
613,2.09,-5.95,1.85,6.41,0.17,-2.64,622.0,584.0,542.0,565.0,512.0,5,1
614,9.88,2.52,11.67,5.95,0.72,-2.15,630.0,597.0,549.0,564.0,509.0,5,1
615,13.3,-7.41,20.09,-2.17,-0.61,0.68,625.0,589.0,544.0,561.0,509.0,5,1
616,2.5,0.51,5.51,-3.04,0.02,1.34,625.0,591.0,546.0,565.0,509.0,5,1
617,3.34,-1.27,2.54,-2.5,-0.04,1.29,625.0,588.0,545.0,566.0,510.0,5,1
618,1.32,-0.66,-0.32,-0.91,-0.09,0.64,623.0,587.0,545.0,566.0,512.0,5,1
619,2.0,-1.63,2.35,1.8,-0.16,-0.66,624.0,585.0,544.0,567.0,512.0,5,1
620,2.35,-3.21,6.47,4.91,1.37,-1.47,624.0,588.0,544.0,567.0,513.0,5,1
621,8.69,6.3,12.09,5.24,-0.0,-1.62,631.0,599.0,553.0,567.0,511.0,5,1
622,4.32,0.19,14.39,-2.01,0.21,0.14,628.0,591.0,548.0,563.0,509.0,5,1
623,6.51,0.62,6.92,-3.59,-0.14,1.67,628.0,592.0,549.0,565.0,510.0,5,1
624,1.53,-1.51,0.31,-3.16,0.58,1.72,627.0,590.0,547.0,565.0,511.0,5,1
625,0.12,-1.4,-3.02,-1.71,0.62,0.84,623.0,584.0,545.0,567.0,514.0,5,1
626,2.84,-2.44,1.41,2.93,-0.62,-1.4,621.0,582.0,543.0,568.0,515.0,5,1
627,1.8,-2.95,8.41,6.6,0.89,-2.37,622.0,586.0,543.0,566.0,511.0,5,1
628,12.28,10.13,0.76,4.92,1.69,-1.14,624.0,589.0,548.0,563.0,506.0,5,1
629,4.94,-2.96,11.1,-2.49,0.34,0.91,626.0,591.0,545.0,562.0,509.0,5,1
630,1.71,0.4,4.43,-4.1,-0.65,1.95,624.0,591.0,547.0,565.0,511.0,5,1
631,-0.36,-3.37,-4.86,-2.68,0.16,1.31,623.0,588.0,546.0,566.0,514.0,5,1
632,1.53,-1.43,-0.1,-0.22,-0.07,-0.17,624.0,583.0,546.0,567.0,514.0,5,1
633,0.99,-3.45,2.27,4.75,0.06,-2.18,623.0,587.0,546.0,567.0,514.0,5,1
634,3.45,-0.48,10.1,5.49,0.88,-1.71,625.0,591.0,546.0,566.0,511.0,5,1
635,78.45,-59.49,43.24,-1.63,-8.73,3.35,626.0,590.0,547.0,567.0,512.0,5,1
636,7.63,1.87,6.45,-3.31,-0.11,1.25,628.0,592.0,545.0,564.0,510.0,5,1
637,4.13,-1.57,5.12,-4.05,-0.02,2.02,625.0,589.0,544.0,565.0,511.0,5,1
638,-2.4,-0.62,-2.97,-2.63,0.75,1.34,622.0,585.0,543.0,566.0,513.0,5,1
639,0.72,-0.77,-1.31,0.76,-0.14,-0.5,621.0,583.0,541.0,567.0,515.0,5,1
640,-0.15,-2.67,3.45,5.47,-0.06,-2.23,621.0,586.0,542.0,566.0,513.0,5,1
641,8.84,2.77,11.88,5.63,1.7,-1.6,628.0,595.0,547.0,567.0,511.0,5,1
642,12.63,2.02,31.53,-2.39,-1.49,0.32,627.0,591.0,547.0,567.0,511.0,5,1
643,5.96,1.17,6.7,-3.24,0.14,1.33,628.0,595.0,549.0,567.0,511.0,5,1
644,3.6,-0.31,2.55,-3.62,-0.46,1.62,625.0,590.0,545.0,567.0,512.0,5,1
645,-2.6,-4.92,-4.24,-2.67,0.06,0.63,623.0,586.0,545.0,568.0,514.0,5,1
646,1.26,-1.75,0.94,1.11,-0.01,-0.81,621.0,583.0,543.0,568.0,516.0,5,1
647,1.24,-1.8,4.12,5.0,0.31,-2.18,622.0,587.0,544.0,568.0,514.0,5,1
648,6.24,2.76,12.78,4.9,1.51,-1.43,627.0,594.0,547.0,567.0,511.0,5,1
649,19.65,-3.04,24.99,-2.06,-5.29,0.62,628.0,593.0,548.0,567.0,510.0,5,1
650,6.76,1.53,7.84,-3.53,-0.4,1.59,629.0,594.0,549.0,567.0,510.0,5,1
651,1.61,-0.9,2.42,-4.04,-0.01,2.16,624.0,589.0,545.0,567.0,513.0,5,1
652,-2.41,0.52,-3.96,-2.15,0.51,1.16,621.0,584.0,541.0,567.0,514.0,5,1
653,0.22,-1.16,-0.66,1.56,-0.19,-0.96,619.0,581.0,540.0,568.0,515.0,5,1
654,0.87,-1.95,3.18,5.52,0.37,-2.47,622.0,587.0,543.0,568.0,514.0,5,1
655,11.45,3.57,17.14,4.93,1.04,-1.78,628.0,600.0,550.0,568.0,510.0,5,1
656,11.26,1.06,24.27,-2.77,1.62,1.06,631.0,601.0,555.0,570.0,511.0,5,1
657,5.74,-0.1,9.3,-3.79,-0.41,1.71,628.0,595.0,548.0,568.0,511.0,5,1
658,-2.04,1.21,1.6,-4.1,0.2,1.86,625.0,590.0,546.0,568.0,514.0,5,1
659,-2.8,-0.16,-3.82,-2.98,1.08,0.95,625.0,584.0,544.0,568.0,515.0,5,1
660,1.73,-1.59,0.76,2.32,-0.33,-1.64,622.0,581.0,542.0,568.0,516.0,5,1
661,-0.77,-0.41,5.39,6.27,-0.17,-3.17,623.0,589.0,544.0,568.0,513.0,5,1
662,16.98,8.3,20.33,2.89,1.82,-1.18,630.0,602.0,553.0,568.0,509.0,5,1
663,14.95,3.35,18.58,-2.21,-0.75,1.1,631.0,601.0,554.0,568.0,510.0,5,1
664,6.59,-0.77,8.84,-4.29,-0.75,2.39,629.0,596.0,550.0,568.0,511.0,5,1
665,-1.18,-0.73,-1.49,-4.69,0.2,2.35,625.0,588.0,543.0,567.0,513.0,5,1
666,-1.86,0.34,-3.06,-1.75,0.12,0.7,623.0,583.0,541.0,568.0,516.0,5,1
667,0.72,-0.72,-1.64,3.88,-0.13,-2.1,622.0,586.0,536.0,569.0,515.0,5,1
668,1.52,-3.57,7.99,5.73,0.24,-2.27,625.0,593.0,545.0,568.0,512.0,5,1
669,12.61,6.47,17.35,4.9,1.59,-1.77,630.0,600.0,552.0,569.0,511.0,5,1
670,8.45,-3.12,21.14,-2.47,-0.11,0.75,625.0,592.0,547.0,566.0,510.0,5,1
671,2.73,1.7,4.9,-3.99,-0.16,1.65,627.0,593.0,548.0,568.0,511.0,5,1
672,1.85,-2.98,1.91,-3.6,0.1,1.15,624.0,588.0,546.0,567.0,515.0,5,1
673,1.72,-0.79,-0.46,-0.88,0.33,0.04,624.0,587.0,546.0,568.0,515.0,5,1
674,1.92,-2.79,3.22,3.16,0.01,-1.45,623.0,587.0,542.0,569.0,517.0,5,1
675,3.34,-1.37,11.5,6.33,-0.64,-2.1,625.0,592.0,544.0,568.0,513.0,5,1
676,28.95,2.33,41.11,-4.03,6.02,2.42,625.0,591.0,543.0,564.0,511.0,5,1
677,7.13,2.89,7.34,-3.09,0.14,1.61,627.0,596.0,548.0,565.0,510.0,5,1
678,2.39,-0.69,2.04,-4.44,0.67,2.39,626.0,594.0,548.0,566.0,513.0,5,1
679,-2.29,0.63,-5.71,-3.71,0.69,1.38,624.0,587.0,0.0,567.0,516.0,5,1
680,1.53,-1.7,-0.39,1.21,-0.35,-0.94,622.0,582.0,543.0,568.0,517.0,5,1
681,0.57,-4.75,4.9,6.39,0.3,-3.13,622.0,589.0,544.0,567.0,514.0,5,1
682,7.13,2.57,12.17,5.68,0.75,-2.27,626.0,599.0,551.0,567.0,510.0,5,1
683,33.7,10.89,29.25,-1.22,-1.81,0.69,620.0,588.0,543.0,563.0,511.0,5,1
684,2.89,4.08,5.43,-2.64,-0.44,1.17,624.0,596.0,549.0,568.0,511.0,5,1
685,4.22,-1.32,2.98,-3.88,0.45,2.15,621.0,591.0,545.0,568.0,513.0,5,1
686,-0.71,-1.2,-3.05,-3.43,0.38,1.27,622.0,588.0,547.0,567.0,515.0,5,1
687,0.76,-2.2,1.08,0.9,-0.06,-0.62,621.0,583.0,543.0,568.0,517.0,5,1
688,0.49,-3.7,5.45,6.36,0.74,-2.62,621.0,588.0,545.0,567.0,515.0,5,1
689,10.13,5.4,10.13,4.53,0.25,-2.17,627.0,601.0,552.0,568.0,511.0,5,1
690,17.86,1.82,27.95,-2.11,-0.36,0.9,624.0,592.0,547.0,565.0,510.0,5,1
691,4.08,1.58,7.89,-2.52,0.21,1.46,625.0,597.0,550.0,568.0,512.0,5,1
692,2.12,-1.07,2.03,-3.57,0.81,1.85,624.0,593.0,546.0,567.0,514.0,5,1
693,-1.53,0.49,-3.95,-2.47,-0.02,0.79,622.0,589.0,545.0,568.0,515.0,5,1
694,1.46,-0.81,-0.21,0.58,-0.35,-0.64,620.0,586.0,545.0,569.0,517.0,5,1
695,0.16,-4.25,5.29,5.16,0.52,-1.98,622.0,590.0,547.0,568.0,517.0,5,1
696,8.21,2.74,14.18,5.39,1.45,-1.36,626.0,598.0,550.0,568.0,512.0,5,1
697,29.7,8.48,22.6,-1.23,-3.3,0.79,624.0,592.0,546.0,566.0,512.0,5,1
698,6.69,0.92,8.48,-3.35,-0.11,1.4,625.0,596.0,548.0,567.0,512.0,5,1
699,1.83,-0.57,1.3,-3.7,-0.05,2.01,625.0,593.0,546.0,566.0,513.0,5,1
700,-1.94,2.13,-2.73,-3.43,0.44,1.46,622.0,588.0,544.0,567.0,515.0,5,1
701,1.13,-1.77,0.07,2.05,0.09,-0.96,621.0,584.0,542.0,568.0,517.0,5,1
702,-0.44,-0.76,2.21,6.26,0.35,-2.39,622.0,592.0,545.0,568.0,515.0,5,1
703,13.88,5.01,16.27,5.28,-0.52,-2.05,626.0,600.0,550.0,569.0,512.0,5,1
704,11.22,-7.19,26.25,-2.82,0.84,0.82,625.0,594.0,545.0,564.0,511.0,5,1
705,4.09,1.98,9.0,-3.76,0.29,1.93,626.0,596.0,548.0,567.0,513.0,5,1
706,0.29,-0.35,0.94,-3.67,0.82,1.76,624.0,593.0,546.0,567.0,514.0,5,1
707,-0.83,0.39,-2.34,-2.12,0.2,0.64,623.0,590.0,546.0,568.0,517.0,5,1
708,0.98,-1.28,0.93,2.67,0.03,-1.3,622.0,588.0,546.0,568.0,518.0,5,1
709,-0.18,-2.78,5.61,5.98,0.61,-2.21,625.0,596.0,547.0,568.0,516.0,5,1
710,10.55,7.07,15.64,4.42,0.28,-1.68,629.0,605.0,556.0,569.0,511.0,5,1
711,12.87,-3.33,20.51,-1.85,0.05,0.77,626.0,597.0,549.0,567.0,511.0,5,1
712,6.26,2.24,8.05,-3.49,-0.41,1.77,627.0,599.0,550.0,569.0,512.0,5,1
713,-0.08,-0.81,0.45,-3.75,0.44,1.96,626.0,593.0,546.0,568.0,514.0,5,1
714,0.23,-0.42,-2.93,-1.69,-0.28,0.7,622.0,589.0,542.0,567.0,516.0,5,1
715,-0.39,-1.3,-1.37,2.67,0.62,-1.18,622.0,590.0,543.0,568.0,516.0,5,1
716,0.93,-1.01,5.24,4.67,-0.03,-2.05,624.0,595.0,546.0,569.0,515.0,5,1
717,11.37,3.76,17.57,4.03,1.06,-1.52,627.0,602.0,551.0,569.0,512.0,5,1
718,34.41,4.52,21.83,-1.89,-2.49,1.39,627.0,597.0,550.0,568.0,513.0,5,1
719,6.21,0.21,9.44,-3.11,-0.35,1.37,627.0,599.0,551.0,569.0,514.0,5,1
720,1.94,-1.02,2.4,-3.85,0.43,1.89,627.0,598.0,549.0,568.0,514.0,5,1
721,-0.69,-0.64,-2.04,-2.88,0.25,1.33,623.0,590.0,544.0,567.0,516.0,5,1
722,0.97,-1.37,-0.66,1.98,0.23,-0.82,622.0,590.0,541.0,567.0,517.0,5,1
723,0.43,-1.56,2.07,5.37,0.56,-2.09,623.0,594.0,543.0,569.0,516.0,5,1
724,7.43,2.55,15.01,5.39,1.16,-1.7,626.0,601.0,549.0,569.0,515.0,5,1
725,36.47,5.99,24.17,-0.84,-5.09,1.71,625.0,593.0,542.0,565.0,512.0,5,1
726,4.74,3.5,7.18,-2.57,0.65,1.12,626.0,598.0,547.0,567.0,513.0,5,1
727,3.36,-0.73,5.12,-3.62,-0.17,1.41,625.0,598.0,546.0,567.0,514.0,5,1
728,-0.36,0.14,-0.7,-3.23,0.05,1.13,625.0,595.0,546.0,567.0,517.0,5,1
729,0.32,-1.12,-1.04,-0.29,-0.07,-0.19,622.0,592.0,545.0,567.0,517.0,5,1
730,0.83,-4.13,4.63,5.16,0.96,-1.77,623.0,593.0,545.0,567.0,517.0,5,1
731,8.8,2.21,12.4,6.34,0.08,-2.16,626.0,602.0,551.0,569.0,513.0,5,1
732,20.44,-11.16,29.92,-2.24,-3.89,0.92,627.0,597.0,548.0,568.0,514.0,5,1
733,5.17,2.65,8.25,-2.78,0.08,0.97,627.0,600.0,550.0,568.0,514.0,5,1
734,2.7,-1.09,4.29,-3.66,-0.13,1.7,627.0,600.0,550.0,568.0,515.0,5,1
735,-0.34,-1.85,-0.51,-3.07,0.26,1.54,624.0,594.0,545.0,568.0,517.0,5,1
736,0.86,-1.58,-0.24,0.85,0.01,-0.34,623.0,590.0,541.0,567.0,517.0,5,1
737,-0.56,-0.81,1.45,4.84,0.38,-2.07,623.0,595.0,544.0,568.0,517.0,5,1
738,6.05,1.84,11.62,4.96,0.1,-1.96,626.0,601.0,549.0,569.0,514.0,5,1
739,56.22,-14.03,30.71,-2.51,-0.76,2.97,628.0,599.0,554.0,568.0,516.0,5,1
740,7.9,1.32,7.31,-2.44,0.37,1.12,629.0,602.0,550.0,568.0,514.0,5,1
741,3.8,-0.16,4.8,-3.55,0.52,1.84,629.0,601.0,550.0,568.0,515.0,5,1
742,1.36,-6.64,-1.37,-3.45,-0.4,1.72,628.0,597.0,548.0,567.0,517.0,5,1
743,-0.72,-2.43,-0.61,-0.15,0.06,0.08,626.0,592.0,543.0,567.0,518.0,5,1
744,-0.06,-5.39,1.7,5.58,1.04,-2.18,623.0,592.0,542.0,568.0,517.0,5,1
745,4.73,2.7,9.38,5.9,0.3,-2.01,628.0,603.0,550.0,570.0,516.0,5,1
746,20.98,4.78,36.0,-3.05,3.05,1.28,629.0,602.0,552.0,570.0,516.0,5,1
747,5.77,0.05,7.99,-2.42,-0.03,0.85,629.0,601.0,551.0,569.0,515.0,5,1
748,1.14,-1.2,4.41,-3.56,0.23,1.5,628.0,602.0,548.0,570.0,516.0,5,1
749,0.39,-2.63,-0.91,-2.86,0.44,1.05,627.0,598.0,543.0,569.0,516.0,5,1
750,4.33,2.07,7.57,-0.06,-0.07,0.03,626.0,585.0,553.0,586.0,500.0,6,1
751,4.67,2.04,7.46,-0.03,0.0,-0.0,626.0,585.0,554.0,585.0,499.0,6,1
752,4.7,2.19,7.35,-0.26,0.11,0.1,627.0,586.0,554.0,584.0,499.0,6,1
753,4.38,1.7,7.8,-0.41,0.28,0.15,629.0,587.0,553.0,582.0,496.0,6,1
754,4.28,1.09,7.92,-0.3,0.28,0.07,632.0,590.0,552.0,581.0,495.0,6,1
755,2.22,0.42,8.79,-0.06,-0.65,0.14,631.0,580.0,543.0,571.0,491.0,6,1
756,9.07,4.08,9.93,-0.09,-2.12,-0.3,630.0,582.0,543.0,567.0,491.0,6,1
757,7.01,3.67,9.45,-1.69,-0.02,0.37,630.0,584.0,546.0,567.0,506.0,6,1
758,5.81,-3.48,5.57,-3.0,-0.17,1.22,629.0,585.0,547.0,569.0,508.0,6,1
759,3.84,-2.87,3.09,-2.01,-0.46,0.99,627.0,580.0,545.0,571.0,509.0,6,1
760,1.94,-3.0,2.33,0.36,-0.13,0.0,625.0,579.0,546.0,571.0,511.0,6,1
761,2.95,-2.4,3.97,3.33,1.02,-1.23,624.0,581.0,547.0,571.0,511.0,6,1
762,3.97,1.14,11.76,4.66,-0.22,-1.75,628.0,586.0,550.0,570.0,509.0,6,1
763,8.66,4.47,21.43,-2.07,0.64,0.73,628.0,585.0,548.0,569.0,508.0,6,1
764,3.05,0.93,6.66,-2.69,0.81,1.17,629.0,586.0,551.0,571.0,510.0,6,1
765,1.72,-0.49,1.98,-2.78,0.36,1.18,627.0,583.0,549.0,572.0,512.0,6,1
766,-0.75,-1.25,-1.58,-1.85,-0.26,0.47,624.0,578.0,547.0,573.0,513.0,6,1
767,1.59,-3.18,1.79,1.5,0.36,-1.2,623.0,576.0,547.0,574.0,514.0,6,1
768,2.1,-3.02,5.61,4.3,0.93,-1.72,625.0,581.0,550.0,573.0,514.0,6,1
769,12.56,6.16,16.39,4.25,0.93,-1.27,630.0,590.0,555.0,573.0,510.0,6,1
770,11.18,0.26,17.93,-1.41,-0.52,0.72,628.0,586.0,553.0,572.0,511.0,6,1
771,4.5,2.14,6.25,-3.2,-0.43,1.88,629.0,588.0,555.0,573.0,513.0,6,1
772,0.31,-0.62,-0.29,-3.26,0.19,1.88,626.0,582.0,549.0,573.0,514.0,6,1
773,-1.54,-1.08,-3.15,-1.48,-0.01,0.64,623.0,575.0,546.0,574.0,517.0,6,1
774,0.17,-1.41,0.59,3.3,-0.57,-1.86,621.0,573.0,545.0,574.0,517.0,6,1
775,1.33,-2.54,4.68,5.06,-0.12,-2.28,625.0,583.0,548.0,573.0,513.0,6,1
776,16.4,9.01,22.34,3.71,1.1,-1.24,630.0,592.0,555.0,573.0,510.0,6,1
777,13.2,0.06,15.93,-2.45,-0.04,1.35,630.0,587.0,553.0,573.0,511.0,6,1
778,2.48,0.99,4.04,-3.7,-0.17,1.97,629.0,587.0,553.0,574.0,514.0,6,1
779,-0.05,0.34,-2.06,-3.36,0.25,1.56,625.0,582.0,550.0,574.0,516.0,6,1
780,0.09,-0.33,-1.0,-1.06,-0.38,0.09,623.0,577.0,548.0,576.0,519.0,6,1
781,1.61,-2.08,2.67,4.86,0.26,-2.6,621.0,576.0,547.0,576.0,519.0,6,1
782,7.32,-0.87,10.9,5.28,0.88,-2.22,627.0,588.0,551.0,574.0,510.0,6,1
783,43.9,-3.24,33.67,-2.77,1.78,2.45,627.0,581.0,552.0,575.0,513.0,6,1
784,5.19,2.44,5.05,-2.08,0.64,1.09,628.0,585.0,553.0,574.0,512.0,6,1
785,2.49,0.1,1.85,-3.06,0.16,1.98,627.0,579.0,548.0,574.0,514.0,6,1
786,-2.08,-0.25,-2.91,-1.78,0.42,0.94,623.0,576.0,545.0,574.0,516.0,6,1
787,0.62,-0.97,0.75,1.87,-0.53,-1.38,622.0,575.0,545.0,575.0,519.0,6,1
788,2.2,0.51,5.84,4.39,0.46,-2.44,626.0,582.0,550.0,574.0,515.0,6,1
789,17.57,7.49,18.84,3.59,1.17,-1.51,629.0,590.0,557.0,575.0,511.0,6,1
790,11.88,-2.53,16.38,-1.86,-0.7,1.16,630.0,587.0,555.0,574.0,511.0,6,1
791,4.15,0.9,4.57,-3.46,-0.09,2.2,628.0,588.0,555.0,574.0,512.0,6,1
792,0.09,-0.23,-1.51,-3.44,-0.09,1.77,626.0,583.0,550.0,575.0,516.0,6,1
793,0.68,-0.6,-0.49,-0.86,-0.52,0.23,624.0,579.0,544.0,575.0,518.0,6,1
794,1.44,-0.85,0.26,3.77,0.2,-2.11,622.0,581.0,550.0,575.0,519.0,6,1
795,1.46,0.02,5.13,4.66,0.59,-2.2,626.0,588.0,551.0,574.0,514.0,6,1
796,16.11,7.79,20.96,3.17,0.96,-1.25,628.0,589.0,556.0,575.0,514.0,6,1
797,10.09,0.6,12.83,-1.73,-0.19,0.75,628.0,587.0,553.0,573.0,511.0,6,1
798,4.62,2.59,3.98,-3.03,-0.14,1.59,627.0,588.0,554.0,574.0,513.0,6,1
799,0.32,-0.2,-1.14,-2.63,0.01,1.36,626.0,583.0,549.0,575.0,515.0,6,1
800,-0.2,-0.93,-0.79,-0.1,0.04,-0.12,623.0,577.0,545.0,575.0,517.0,6,1
801,1.36,-2.0,2.55,3.9,0.09,-2.13,623.0,580.0,548.0,575.0,517.0,6,1
802,10.42,1.51,13.7,3.9,0.1,-1.9,628.0,588.0,553.0,574.0,512.0,6,1
803,39.72,-6.14,25.81,-1.03,-5.89,1.21,630.0,592.0,558.0,575.0,511.0,6,1
804,8.43,1.19,10.58,-2.58,-0.05,1.78,628.0,590.0,556.0,575.0,512.0,6,1
805,2.54,0.3,1.58,-3.16,0.27,2.16,625.0,587.0,552.0,574.0,513.0,6,1
806,-2.12,-1.55,-2.53,-2.18,0.17,1.22,622.0,578.0,544.0,574.0,516.0,6,1
807,0.2,-1.81,0.56,1.78,0.53,-1.42,621.0,576.0,543.0,574.0,518.0,6,1
808,0.89,0.17,4.24,3.92,0.54,-2.33,623.0,584.0,548.0,573.0,515.0,6,1
809,12.89,4.19,17.23,3.43,0.84,-1.65,625.0,590.0,554.0,574.0,512.0,6,1
810,19.8,0.46,22.44,-1.95,-0.1,0.85,625.0,588.0,553.0,573.0,512.0,6,1
811,3.65,1.09,6.11,-2.48,0.62,1.5,626.0,590.0,555.0,574.0,514.0,6,1
812,0.07,-0.43,1.29,-2.69,0.49,1.46,623.0,583.0,549.0,574.0,516.0,6,1
813,-1.12,-1.29,-0.98,-1.17,0.59,0.36,621.0,581.0,546.0,575.0,517.0,6,1
814,1.41,-0.47,0.36,2.41,-0.02,-1.66,622.0,579.0,547.0,575.0,518.0,6,1
815,3.43,0.47,10.31,4.63,1.02,-2.25,623.0,585.0,551.0,574.0,516.0,6,1
816,75.67,-30.84,28.07,-0.18,-7.61,2.59,626.0,590.0,559.0,573.0,515.0,6,1
817,9.17,1.99,6.17,-3.07,-0.38,1.75,625.0,591.0,555.0,573.0,511.0,6,1
818,4.09,-1.37,4.25,-3.57,0.22,2.05,624.0,583.0,548.0,571.0,515.0,6,1
819,-3.03,0.88,-3.54,-2.18,0.8,0.99,623.0,582.0,547.0,573.0,516.0,6,1
820,0.34,-0.26,-1.57,-0.21,-0.0,-0.55,622.0,580.0,547.0,574.0,519.0,6,1
821,1.01,-4.44,6.76,5.44,0.33,-2.74,622.0,580.0,0.0,574.0,519.0,6,1
822,12.43,4.22,11.41,6.02,1.36,-2.49,627.0,594.0,556.0,574.0,513.0,6,1
823,19.02,-1.91,21.35,-2.58,-0.07,1.44,625.0,587.0,551.0,570.0,512.0,6,1
824,1.98,1.05,3.02,-3.31,0.64,1.79,626.0,590.0,554.0,572.0,514.0,6,1
825,1.89,-0.78,-0.72,-3.63,-0.33,1.96,626.0,589.0,555.0,575.0,518.0,6,1
826,1.31,-2.52,1.18,-2.04,-0.14,0.66,626.0,583.0,553.0,577.0,522.0,6,1
827,2.71,-5.71,6.6,3.53,0.56,-1.82,625.0,582.0,553.0,577.0,522.0,6,1
828,5.75,1.48,6.85,6.29,0.61,-2.8,626.0,590.0,553.0,574.0,513.0,6,1
829,37.21,-2.13,34.94,-3.85,0.34,2.9,625.0,589.0,554.0,573.0,513.0,6,1
830,6.71,0.6,6.78,-2.2,0.98,1.33,627.0,589.0,555.0,571.0,512.0,6,1
831,1.76,0.03,2.81,-3.53,0.38,2.32,626.0,591.0,557.0,575.0,514.0,6,1
832,-0.38,-1.55,-0.36,-3.12,0.57,2.0,626.0,584.0,555.0,575.0,519.0,6,1
833,1.83,-1.55,2.58,0.28,-0.57,-0.49,626.0,578.0,550.0,577.0,521.0,6,1
834,3.1,-5.18,7.17,6.42,0.48,-3.3,624.0,578.0,550.0,576.0,521.0,6,1
835,10.85,3.99,8.82,5.67,0.33,-2.92,627.0,595.0,558.0,573.0,510.0,6,1
836,11.39,-0.75,19.87,-2.8,0.28,1.59,624.0,587.0,552.0,570.0,511.0,6,1
837,2.21,-0.01,4.61,-3.12,0.99,2.03,625.0,590.0,555.0,572.0,512.0,6,1
838,-0.6,-0.2,-0.39,-3.81,1.02,1.95,624.0,585.0,554.0,573.0,516.0,6,1
839,-0.85,0.11,1.13,-2.33,-0.03,0.7,626.0,582.0,553.0,575.0,520.0,6,1
840,3.07,-3.97,4.91,2.48,0.04,-1.86,626.0,579.0,0.0,577.0,522.0,6,1
841,3.8,-3.7,11.72,7.4,-0.11,-3.82,625.0,585.0,551.0,573.0,514.0,6,1
842,3.01,28.45,18.69,-8.73,-3.72,2.45,625.0,589.0,554.0,573.0,511.0,6,1
843,12.55,-1.52,8.89,-3.03,-0.73,1.9,626.0,588.0,551.0,568.0,510.0,6,1
844,3.7,-1.36,3.52,-3.89,0.74,2.59,626.0,590.0,555.0,572.0,514.0,6,1
845,0.13,0.66,-0.15,-2.7,0.39,1.77,627.0,588.0,556.0,575.0,520.0,6,1
846,2.5,-2.68,2.93,0.54,0.39,-0.21,627.0,580.0,551.0,576.0,521.0,6,1
847,3.52,-11.73,7.74,7.13,1.43,-3.28,623.0,577.0,547.0,576.0,521.0,6,1
848,5.11,5.67,3.51,6.43,-1.13,-3.79,625.0,595.0,555.0,572.0,509.0,6,1
849,4.6,-6.08,19.61,-2.74,0.31,0.78,620.0,583.0,543.0,566.0,510.0,6,1
850,2.61,0.85,3.56,-3.52,0.3,2.21,622.0,588.0,551.0,568.0,510.0,6,1
851,1.41,-1.64,2.85,-3.99,1.45,2.34,624.0,584.0,551.0,572.0,516.0,6,1
852,1.59,-1.41,-0.13,-1.63,-0.58,0.89,626.0,584.0,554.0,575.0,521.0,6,1
853,2.09,-3.71,3.96,2.12,-0.03,-1.15,626.0,581.0,552.0,576.0,522.0,6,1
854,1.91,-12.36,11.01,8.59,1.55,-3.83,624.0,583.0,548.0,574.0,518.0,6,1
855,-5.96,39.03,15.51,-8.73,-2.29,2.44,628.0,587.0,550.0,572.0,510.0,6,1
856,12.45,-2.04,10.03,-2.49,-0.16,1.38,625.0,585.0,547.0,569.0,512.0,6,1
857,2.26,-1.18,3.14,-3.03,0.44,2.2,627.0,590.0,553.0,572.0,514.0,6,1
858,0.91,-1.33,0.72,-2.58,0.47,1.74,627.0,586.0,553.0,574.0,518.0,6,1
859,2.56,-1.53,1.39,0.05,0.14,-0.2,627.0,582.0,550.0,576.0,521.0,6,1
860,3.66,-4.59,6.63,5.02,0.12,-2.74,626.0,580.0,550.0,576.0,521.0,6,1
861,7.52,1.25,9.63,5.68,0.19,-2.82,626.0,595.0,554.0,572.0,509.0,6,1
862,21.75,0.67,18.45,-2.8,-1.2,1.46,625.0,586.0,548.0,569.0,510.0,6,1
863,4.82,-1.05,6.71,-3.32,0.47,2.02,627.0,589.0,551.0,571.0,511.0,6,1
864,1.22,-0.52,2.24,-3.64,0.72,2.32,628.0,589.0,553.0,574.0,516.0,6,1
865,0.54,-0.54,0.06,-2.07,-0.02,1.24,628.0,587.0,553.0,577.0,520.0,6,1
866,2.85,-1.39,2.35,1.08,0.06,-1.0,627.0,579.0,550.0,578.0,523.0,6,1
867,2.52,-10.97,9.27,7.36,-0.01,-3.84,624.0,578.0,546.0,577.0,521.0,6,1
868,10.32,5.6,4.66,5.42,2.34,-2.63,626.0,597.0,555.0,572.0,508.0,6,1
869,12.02,-3.93,17.04,-3.06,-0.34,1.68,623.0,585.0,549.0,570.0,511.0,6,1
870,2.23,0.62,3.3,-2.96,0.53,1.96,626.0,592.0,555.0,574.0,514.0,6,1
871,1.51,-0.17,1.29,-3.29,0.48,2.08,627.0,590.0,555.0,576.0,518.0,6,1
872,0.64,-0.22,1.93,-0.85,-0.48,0.36,628.0,581.0,551.0,578.0,522.0,6,1
873,3.33,-6.24,5.73,3.5,-0.02,-2.4,626.0,578.0,547.0,577.0,523.0,6,1
874,13.25,-0.04,10.68,5.02,-1.34,-3.16,625.0,594.0,552.0,573.0,511.0,6,1
875,26.54,2.67,22.23,-3.22,-2.73,1.57,625.0,587.0,549.0,572.0,512.0,6,1
876,6.93,0.11,6.26,-2.15,0.5,1.55,625.0,591.0,553.0,573.0,513.0,6,1
877,2.89,0.57,1.7,-2.81,1.03,1.99,625.0,592.0,554.0,575.0,515.0,6,1
878,1.14,-0.66,0.23,-2.25,-0.02,1.26,626.0,589.0,553.0,577.0,520.0,6,1
879,2.96,-1.24,1.81,0.38,-0.57,-0.77,627.0,583.0,551.0,578.0,523.0,6,1
880,3.01,-7.75,9.01,5.02,0.67,-2.8,626.0,584.0,551.0,578.0,524.0,6,1
881,11.76,3.47,8.45,4.92,-0.04,-2.7,628.0,596.0,557.0,573.0,508.0,6,1
882,12.63,-4.77,18.63,-2.76,-0.11,1.8,628.0,588.0,549.0,570.0,511.0,6,1
883,3.87,-0.11,4.35,-2.51,0.38,1.87,628.0,593.0,557.0,573.0,514.0,6,1
884,1.12,0.86,-0.07,-2.69,0.04,1.74,628.0,592.0,555.0,576.0,516.0,6,1
885,0.62,-0.19,0.54,-1.23,-0.33,0.39,628.0,582.0,550.0,577.0,520.0,6,1
886,3.22,-2.71,4.6,2.14,-0.48,-1.9,627.0,579.0,548.0,578.0,522.0,6,1
887,3.99,-3.58,11.07,6.18,-0.36,-3.65,628.0,587.0,550.0,576.0,518.0,6,1
888,-7.84,62.16,12.38,1.3,4.52,-0.33,628.0,587.0,554.0,572.0,509.0,6,1
889,11.35,-2.34,9.69,-2.43,-0.6,1.54,627.0,590.0,551.0,573.0,512.0,6,1
890,2.11,0.06,2.71,-3.35,0.31,2.12,629.0,593.0,556.0,575.0,516.0,6,1
891,1.13,-0.59,-0.18,-2.76,-0.09,1.49,628.0,590.0,553.0,577.0,520.0,6,1
892,3.43,-1.0,2.37,-0.83,0.27,-0.21,630.0,583.0,552.0,579.0,524.0,6,1
893,3.41,-5.68,7.41,3.87,-0.09,-2.2,628.0,581.0,549.0,579.0,524.0,6,1
894,10.59,-1.04,7.27,4.93,-0.17,-2.84,628.0,591.0,548.0,572.0,508.0,6,1
895,18.06,0.6,22.13,-2.37,-2.91,1.62,625.0,581.0,545.0,570.0,511.0,6,1
896,5.44,1.07,6.06,-1.86,-0.13,1.51,626.0,588.0,549.0,572.0,511.0,6,1
897,1.88,-0.15,1.79,-2.57,0.58,2.05,627.0,589.0,552.0,575.0,516.0,6,1
898,-0.37,-0.19,-0.26,-2.08,0.86,1.24,628.0,582.0,549.0,578.0,520.0,6,1
899,2.74,-2.35,3.64,1.12,-0.15,-1.15,628.0,580.0,548.0,580.0,523.0,6,1
900,7.08,1.57,5.93,-0.0,0.05,0.0,624.0,590.0,547.0,552.0,508.0,7,1
901,6.67,1.67,5.92,-0.03,0.04,-0.0,625.0,590.0,547.0,553.0,508.0,7,1
902,7.07,1.79,5.79,-0.03,0.03,-0.03,625.0,589.0,547.0,552.0,507.0,7,1
903,7.06,1.75,6.0,-0.1,0.19,0.03,624.0,589.0,547.0,552.0,508.0,7,1
904,6.9,1.55,6.18,-0.06,0.17,-0.01,627.0,588.0,546.0,552.0,507.0,7,1
905,6.81,1.7,6.07,-0.05,0.09,-0.08,626.0,587.0,545.0,552.0,508.0,7,1
906,6.9,1.75,6.06,-0.24,0.16,0.0,628.0,587.0,544.0,552.0,506.0,7,1
907,6.74,1.33,6.46,-0.24,0.41,-0.06,629.0,585.0,542.0,551.0,504.0,7,1
908,5.83,1.7,6.46,-0.16,0.06,-0.06,630.0,583.0,540.0,549.0,503.0,7,1
909,5.25,1.81,6.69,-0.06,-0.29,0.01,632.0,584.0,542.0,552.0,503.0,7,1
910,12.82,5.02,9.08,-1.13,0.69,0.53,630.0,588.0,546.0,563.0,508.0,7,1
911,9.54,1.32,8.02,-2.82,-0.75,1.75,631.0,587.0,547.0,563.0,507.0,7,1
912,3.71,-6.62,2.16,-4.38,-0.39,2.8,631.0,586.0,549.0,564.0,510.0,7,1
913,3.12,-3.52,0.9,-2.96,0.29,2.23,633.0,586.0,551.0,569.0,516.0,7,1
914,1.58,-2.81,1.48,-0.12,-0.19,0.35,634.0,579.0,551.0,571.0,519.0,7,1
915,2.21,-4.99,4.23,3.74,0.9,-1.74,633.0,580.0,550.0,573.0,518.0,7,1
916,5.02,-5.15,10.33,6.23,0.25,-3.96,629.0,584.0,548.0,569.0,511.0,7,1
917,-10.74,54.93,18.19,-6.45,2.84,2.33,626.0,585.0,549.0,567.0,507.0,7,1
918,10.6,1.32,7.33,-2.26,-1.16,1.36,626.0,586.0,547.0,565.0,509.0,7,1
919,0.34,-1.27,1.02,-3.28,0.55,2.41,628.0,589.0,550.0,568.0,511.0,7,1
920,0.45,-0.01,-1.9,-3.13,1.3,2.01,628.0,585.0,550.0,570.0,516.0,7,1
921,4.2,0.07,1.62,-0.34,0.33,0.18,630.0,582.0,550.0,572.0,520.0,7,1
922,4.16,-6.67,7.89,5.03,0.05,-2.66,630.0,581.0,551.0,573.0,520.0,7,1
923,8.95,0.17,10.39,5.82,-0.22,-3.05,629.0,593.0,552.0,569.0,508.0,7,1
924,14.31,-3.9,21.03,-2.79,-0.22,1.39,629.0,583.0,546.0,566.0,509.0,7,1
925,3.46,0.37,4.95,-2.29,0.6,1.58,629.0,588.0,551.0,569.0,511.0,7,1
926,2.55,1.81,0.63,-3.19,0.46,2.11,629.0,588.0,552.0,571.0,514.0,7,1
927,0.76,-1.09,1.23,-1.34,-0.09,0.48,628.0,582.0,551.0,572.0,519.0,7,1
928,3.33,-4.03,5.0,2.18,-0.47,-1.8,628.0,583.0,550.0,574.0,519.0,7,1
929,4.9,-3.24,7.74,5.39,0.07,-2.75,628.0,590.0,552.0,572.0,516.0,7,1
930,-12.29,66.19,17.48,-1.11,2.72,0.57,626.0,586.0,550.0,569.0,510.0,7,1
931,10.45,0.33,7.93,-1.96,-0.97,0.92,628.0,590.0,552.0,570.0,511.0,7,1
932,2.27,-1.23,3.74,-3.82,0.05,2.41,629.0,592.0,554.0,571.0,513.0,7,1
933,2.16,-1.16,0.14,-3.57,0.48,2.29,630.0,588.0,554.0,574.0,518.0,7,1
934,3.37,-1.66,1.19,-0.47,-0.9,-0.19,630.0,583.0,552.0,575.0,521.0,7,1
935,3.47,-5.18,6.35,4.77,-0.33,-2.56,629.0,584.0,551.0,575.0,521.0,7,1
936,5.24,0.16,8.74,6.59,0.14,-3.65,628.0,593.0,554.0,572.0,510.0,7,1
937,24.46,-17.67,20.55,-3.14,-1.38,2.84,627.0,584.0,548.0,569.0,511.0,7,1
938,3.06,0.01,4.21,-2.43,0.59,1.37,628.0,587.0,550.0,570.0,511.0,7,1
939,2.11,-1.39,2.85,-2.83,0.82,1.8,629.0,587.0,552.0,572.0,516.0,7,1
940,2.17,-1.33,0.94,-1.25,0.04,0.94,629.0,587.0,553.0,575.0,519.0,7,1
941,3.48,-3.46,5.32,1.88,0.51,-1.04,630.0,585.0,552.0,575.0,522.0,7,1
942,3.91,-4.65,11.3,5.85,0.14,-3.2,628.0,588.0,550.0,573.0,514.0,7,1
943,55.91,-30.29,19.51,-0.35,-6.57,2.26,627.0,587.0,549.0,570.0,509.0,7,1
944,8.62,-0.46,6.92,-2.3,-0.58,1.41,629.0,587.0,551.0,568.0,510.0,7,1
945,2.17,-1.61,3.38,-3.68,1.03,2.37,629.0,591.0,555.0,572.0,514.0,7,1
946,1.23,-1.72,0.74,-2.45,0.14,1.67,630.0,590.0,556.0,574.0,520.0,7,1
947,4.15,-1.79,2.54,-0.22,0.23,-0.04,631.0,585.0,553.0,576.0,523.0,7,1
948,5.69,-9.14,6.26,5.46,-0.02,-2.93,626.0,586.0,550.0,573.0,522.0,7,1
949,5.36,0.94,5.74,5.92,-0.47,-3.32,627.0,594.0,552.0,569.0,511.0,7,1
950,13.52,-0.5,19.29,-2.81,0.24,1.39,625.0,589.0,548.0,567.0,512.0,7,1
951,4.58,-0.1,4.95,-2.96,0.21,1.64,627.0,593.0,553.0,568.0,512.0,7,1
952,1.89,-2.07,3.53,-3.84,0.58,2.0,628.0,590.0,553.0,571.0,516.0,7,1
953,1.42,-2.06,0.24,-1.86,-0.49,0.85,630.0,589.0,553.0,573.0,522.0,7,1
954,1.68,-2.6,2.74,1.01,0.31,-1.12,630.0,586.0,550.0,573.0,523.0,7,1
955,3.14,-5.63,9.37,6.81,0.52,-3.8,626.0,585.0,547.0,571.0,519.0,7,1
956,11.4,6.58,5.15,5.01,-0.03,-2.62,628.0,595.0,555.0,568.0,509.0,7,1
957,8.64,-4.26,12.49,-2.03,-1.52,1.24,625.0,588.0,548.0,565.0,510.0,7,1
958,1.19,0.3,2.36,-3.05,-0.07,1.94,628.0,592.0,554.0,569.0,514.0,7,1
959,1.25,-1.24,1.44,-2.57,0.54,1.84,628.0,591.0,554.0,572.0,518.0,7,1
960,2.73,-1.07,2.4,-0.32,-0.3,0.09,629.0,586.0,552.0,574.0,524.0,7,1
961,2.94,-4.53,6.18,3.77,0.2,-1.99,627.0,585.0,550.0,573.0,522.0,7,1
962,4.1,1.37,7.66,6.8,-0.46,-3.65,624.0,591.0,551.0,569.0,513.0,7,1
963,22.58,-3.05,19.87,-1.88,0.78,0.87,623.0,584.0,544.0,566.0,513.0,7,1
964,3.4,1.8,2.49,-1.45,0.32,1.14,624.0,591.0,551.0,568.0,512.0,7,1
965,2.35,-1.69,5.6,-2.91,0.68,1.87,626.0,588.0,550.0,568.0,514.0,7,1
966,1.7,-2.54,2.71,-1.87,-0.26,0.87,628.0,589.0,552.0,570.0,518.0,7,1
967,2.74,-1.64,3.25,0.23,-0.15,-0.54,631.0,590.0,554.0,574.0,523.0,7,1
968,5.36,-7.96,10.21,4.38,0.84,-2.53,627.0,585.0,549.0,573.0,523.0,7,1
969,13.43,3.85,-19.66,6.2,-0.78,-3.44,625.0,594.0,558.0,568.0,511.0,7,1
970,9.09,-0.6,8.16,-3.09,-1.62,1.69,628.0,592.0,556.0,568.0,512.0,7,1
971,1.29,-1.55,2.46,-3.49,0.61,2.1,628.0,594.0,558.0,570.0,517.0,7,1
972,1.22,-2.11,1.76,-2.37,-0.38,1.53,629.0,594.0,560.0,573.0,521.0,7,1
973,3.08,-1.73,1.57,-0.3,0.15,0.02,632.0,593.0,561.0,576.0,525.0,7,1
974,4.52,-5.51,6.97,2.98,0.59,-1.81,630.0,586.0,551.0,573.0,523.0,7,1
975,7.45,2.36,9.7,8.38,-1.54,-4.34,625.0,592.0,548.0,568.0,510.0,7,1
976,7.44,-7.1,19.56,-4.25,2.37,2.73,625.0,586.0,546.0,567.0,512.0,7,1
977,3.89,0.42,4.35,-1.42,-0.06,1.2,626.0,590.0,550.0,568.0,512.0,7,1
978,1.0,-2.17,2.26,-2.15,0.59,1.81,627.0,590.0,551.0,570.0,515.0,7,1
979,0.09,-0.02,1.02,-1.14,0.8,1.33,629.0,589.0,552.0,572.0,519.0,7,1
980,2.87,-1.56,4.03,1.04,0.44,-0.49,629.0,587.0,553.0,574.0,523.0,7,1
981,5.38,-4.93,12.26,6.15,0.34,-3.28,628.0,583.0,548.0,573.0,519.0,7,1
982,10.78,6.26,16.54,-8.73,-8.73,2.32,629.0,590.0,549.0,568.0,512.0,7,1
983,11.31,-0.46,8.02,-2.54,-0.92,1.2,629.0,591.0,552.0,567.0,512.0,7,1
984,5.4,-2.31,4.65,-3.03,-0.33,1.92,630.0,595.0,556.0,571.0,515.0,7,1
985,3.17,-1.88,1.1,-2.32,0.01,1.4,631.0,590.0,556.0,572.0,519.0,7,1
986,2.06,-1.6,0.91,-0.35,0.01,0.1,633.0,585.0,552.0,573.0,523.0,7,1
987,3.67,-3.29,3.91,3.01,0.56,-1.67,631.0,582.0,552.0,573.0,522.0,7,1
988,5.9,-2.82,10.59,5.54,-0.53,-3.98,630.0,593.0,553.0,573.0,517.0,7,1
989,49.67,-13.4,37.47,-2.67,-2.67,2.66,631.0,592.0,554.0,572.0,514.0,7,1
990,5.95,-3.23,10.35,-1.62,0.01,1.1,631.0,591.0,552.0,571.0,514.0,7,1
991,1.99,0.33,2.52,-2.05,0.77,2.14,632.0,594.0,555.0,572.0,516.0,7,1
992,-1.02,0.15,-1.7,-2.49,2.17,1.95,631.0,587.0,553.0,574.0,519.0,7,1
993,1.97,0.12,0.85,-0.95,-0.17,0.24,633.0,584.0,554.0,576.0,525.0,7,1
994,4.75,-6.01,7.74,3.28,-0.01,-2.36,631.0,579.0,551.0,576.0,525.0,7,1
995,15.18,-4.77,13.08,5.42,0.09,-3.32,629.0,593.0,549.0,568.0,506.0,7,1
996,18.33,-1.82,21.05,-3.02,0.87,1.47,628.0,585.0,546.0,568.0,510.0,7,1
997,4.84,-1.31,4.57,-2.02,0.33,1.45,628.0,588.0,551.0,570.0,512.0,7,1
998,1.59,0.09,1.25,-2.49,0.38,1.75,629.0,590.0,553.0,573.0,515.0,7,1
999,2.93,-2.21,0.34,-1.5,0.24,0.95,630.0,585.0,552.0,575.0,520.0,7,1
1000,3.69,-2.71,4.45,1.58,-0.01,-1.42,628.0,580.0,550.0,575.0,523.0,7,1
1001,3.69,-3.13,9.09,6.18,-0.14,-3.98,627.0,586.0,550.0,575.0,521.0,7,1
1002,35.9,-3.99,34.35,-7.55,-8.73,2.75,626.0,584.0,544.0,569.0,511.0,7,1
1003,11.09,0.11,6.28,-1.87,-0.25,1.16,627.0,587.0,548.0,568.0,511.0,7,1
1004,3.56,-0.81,3.66,-3.12,0.49,2.38,627.0,590.0,551.0,571.0,515.0,7,1
1005,1.31,-1.67,1.14,-2.03,0.21,1.41,630.0,589.0,553.0,575.0,521.0,7,1
1006,1.65,-1.57,2.07,0.13,0.38,-0.14,630.0,585.0,553.0,577.0,525.0,7,1
1007,3.12,-4.23,6.16,3.39,0.22,-1.79,629.0,581.0,551.0,576.0,525.0,7,1
1008,7.08,3.12,12.04,6.48,-1.47,-3.84,626.0,589.0,543.0,566.0,508.0,7,1
1009,7.7,-5.78,18.33,-3.63,1.07,1.43,624.0,582.0,540.0,562.0,510.0,7,1
1010,3.32,-0.6,2.94,-2.41,-0.13,1.4,625.0,587.0,547.0,566.0,512.0,7,1
1011,1.74,-1.72,2.26,-2.79,0.21,1.51,628.0,588.0,550.0,569.0,516.0,7,1
1012,3.24,-2.68,2.85,-1.29,-0.06,0.84,631.0,586.0,553.0,572.0,521.0,7,1
1013,3.02,-3.56,4.03,1.29,0.63,-0.39,630.0,586.0,553.0,574.0,524.0,7,1
1014,4.43,-6.72,8.25,5.6,0.69,-2.44,628.0,586.0,552.0,574.0,524.0,7,1
1015,9.38,1.85,7.37,5.96,-0.39,-2.88,625.0,595.0,554.0,574.0,518.0,7,1
1016,1.05,-1.41,9.61,-1.61,-0.58,0.42,626.0,587.0,546.0,567.0,512.0,7,1
1017,3.41,-2.2,3.32,-3.17,-0.53,1.58,628.0,590.0,550.0,570.0,515.0,7,1
1018,2.05,-2.98,2.86,-2.66,0.39,1.66,630.0,589.0,551.0,573.0,520.0,7,1
1019,3.23,-2.51,2.41,-1.08,0.57,0.78,632.0,590.0,554.0,576.0,524.0,7,1
1020,3.27,-3.92,5.47,1.72,0.64,-0.49,632.0,588.0,554.0,575.0,526.0,7,1
1021,6.83,-8.75,13.9,8.26,1.1,-4.08,627.0,582.0,545.0,574.0,522.0,7,1
1022,53.77,-10.04,22.21,-3.49,-6.37,2.67,628.0,590.0,548.0,570.0,515.0,7,1
1023,10.77,-1.36,6.37,-3.54,-0.97,1.57,628.0,589.0,548.0,568.0,516.0,7,1
1024,4.55,-3.84,6.01,-3.74,0.04,1.81,630.0,590.0,553.0,570.0,519.0,7,1
1025,1.56,-2.5,1.94,-1.72,0.33,0.93,633.0,591.0,555.0,573.0,522.0,7,1
1026,2.8,-2.43,2.2,0.35,0.14,-0.13,633.0,590.0,556.0,574.0,526.0,7,1
1027,3.56,-4.59,6.45,3.76,0.57,-1.5,631.0,589.0,555.0,575.0,527.0,7,1
1028,4.08,0.28,11.03,7.84,-0.48,-3.56,629.0,590.0,549.0,572.0,517.0,7,1
1029,12.52,5.26,12.82,-4.11,-3.7,2.11,627.0,587.0,544.0,566.0,514.0,7,1
1030,4.34,0.39,4.3,-2.91,0.0,1.64,629.0,590.0,550.0,568.0,514.0,7,1
1031,2.98,-2.14,4.37,-3.03,0.1,1.89,631.0,591.0,553.0,571.0,518.0,7,1
1032,1.9,-1.84,1.17,-1.67,-0.15,1.11,633.0,591.0,556.0,575.0,524.0,7,1
1033,2.44,-3.22,4.25,1.11,0.24,-0.56,633.0,584.0,555.0,575.0,526.0,7,1
1034,3.85,-5.19,8.86,6.76,-0.5,-3.84,629.0,583.0,548.0,574.0,523.0,7,1
1035,6.24,5.63,0.64,5.72,0.22,-3.08,625.0,595.0,553.0,574.0,514.0,7,1
1036,7.86,-3.13,10.4,-2.47,-1.21,1.16,626.0,589.0,550.0,570.0,513.0,7,1
1037,2.92,-2.38,4.78,-3.36,-0.91,1.88,628.0,593.0,554.0,572.0,517.0,7,1
1038,1.15,-3.28,2.33,-2.79,-0.0,1.95,632.0,592.0,556.0,574.0,522.0,7,1
1039,2.94,-1.96,2.89,-0.75,-0.03,0.59,634.0,591.0,558.0,576.0,527.0,7,1
1040,4.19,-3.95,5.24,2.36,0.48,-1.09,635.0,586.0,557.0,577.0,527.0,7,1
1041,8.46,-11.63,15.03,8.58,1.5,-5.1,628.0,583.0,544.0,573.0,517.0,7,1
1042,33.0,-15.43,21.22,-5.06,3.01,3.32,623.0,589.0,542.0,569.0,512.0,7,1
1043,7.25,-0.38,5.83,-2.76,-0.76,1.26,626.0,590.0,548.0,570.0,514.0,7,1
1044,3.55,-2.18,4.81,-3.04,-0.91,1.67,629.0,594.0,553.0,572.0,518.0,7,1
1045,1.15,-1.45,2.21,-2.4,1.05,1.26,632.0,594.0,556.0,575.0,526.0,7,1
1046,3.96,-2.41,3.4,0.13,-0.09,-0.28,634.0,588.0,557.0,578.0,530.0,7,1
1047,5.7,-8.9,9.77,4.91,0.45,-2.33,630.0,580.0,546.0,575.0,524.0,7,1
1048,8.92,1.76,2.35,6.89,-0.89,-3.63,625.0,597.0,549.0,568.0,509.0,7,1
1049,0.08,-5.31,11.78,-2.28,0.45,1.03,624.0,588.0,544.0,567.0,512.0,7,1
1050,6.07,2.03,6.59,0.01,-0.08,0.03,635.0,579.0,546.0,566.0,507.0,8,1
1051,6.38,2.13,6.29,-0.02,-0.01,0.01,634.0,579.0,544.0,567.0,505.0,8,1
1052,6.02,1.95,6.49,-0.11,0.12,0.03,633.0,579.0,543.0,564.0,506.0,8,1
1053,5.95,1.97,6.85,-0.07,0.12,0.02,634.0,579.0,543.0,564.0,505.0,8,1
1054,6.03,1.85,6.65,-0.05,0.01,-0.03,635.0,579.0,542.0,564.0,505.0,8,1
1055,6.22,2.16,6.49,-0.07,0.1,-0.07,634.0,579.0,541.0,563.0,505.0,8,1
1056,5.97,1.98,6.64,-0.19,0.27,-0.0,634.0,579.0,541.0,564.0,505.0,8,1
1057,5.47,1.77,7.0,-0.2,0.3,0.01,636.0,579.0,541.0,564.0,504.0,8,1
1058,5.2,1.41,7.36,-0.08,-0.14,-0.05,636.0,579.0,540.0,564.0,502.0,8,1
1059,4.76,1.33,7.89,0.29,-0.5,-0.17,636.0,575.0,536.0,561.0,501.0,8,1
1060,6.15,3.5,8.44,0.45,-2.81,-0.15,636.0,574.0,534.0,561.0,508.0,8,1
1061,10.69,7.6,4.63,-1.52,2.4,0.55,638.0,587.0,542.0,562.0,511.0,8,1
1062,9.61,1.3,6.83,-3.02,-0.82,1.78,635.0,578.0,537.0,561.0,511.0,8,1
1063,4.36,-2.58,2.31,-3.04,0.32,1.97,634.0,577.0,538.0,562.0,513.0,8,1
1064,2.09,-2.0,-0.29,-1.78,0.35,1.2,634.0,574.0,539.0,565.0,516.0,8,1
1065,3.33,-4.0,3.5,0.71,-0.37,-0.71,634.0,571.0,539.0,567.0,517.0,8,1
1066,5.91,-7.86,11.71,4.8,0.54,-2.91,629.0,569.0,538.0,566.0,517.0,8,1
1067,9.35,8.73,3.56,3.93,0.56,-2.54,629.0,591.0,548.0,565.0,514.0,8,1
1068,12.03,0.06,12.26,-2.0,-1.34,1.59,627.0,578.0,541.0,562.0,511.0,8,1
1069,2.51,-0.39,2.38,-2.96,0.99,2.11,627.0,581.0,544.0,565.0,513.0,8,1
1070,2.66,0.44,-0.98,-2.4,-0.29,1.58,627.0,576.0,540.0,567.0,516.0,8,1
1071,-0.2,0.04,0.48,-0.83,-0.14,0.27,629.0,574.0,540.0,569.0,519.0,8,1
1072,3.97,-4.63,5.96,3.32,0.2,-2.35,627.0,572.0,539.0,569.0,521.0,8,1
1073,12.49,-0.76,11.54,5.44,-0.67,-3.27,628.0,585.0,543.0,564.0,509.0,8,1
1074,29.79,1.22,17.24,-2.28,-1.19,1.5,628.0,581.0,542.0,563.0,510.0,8,1
1075,5.28,-1.07,5.47,-2.46,0.47,1.69,627.0,582.0,543.0,566.0,512.0,8,1
1076,2.8,0.11,1.52,-2.32,0.7,1.5,629.0,582.0,544.0,568.0,515.0,8,1
1077,0.52,-0.11,-1.46,-1.62,-0.26,0.66,628.0,579.0,543.0,570.0,518.0,8,1
1078,1.85,-1.11,1.73,0.62,-0.17,-1.07,629.0,575.0,541.0,571.0,521.0,8,1
1079,4.87,-8.66,10.05,5.28,0.62,-3.35,627.0,572.0,540.0,570.0,520.0,8,1
1080,15.04,8.01,9.18,4.35,1.12,-2.3,630.0,592.0,550.0,566.0,510.0,8,1
1081,13.03,-2.13,15.16,-2.47,-0.71,1.81,628.0,584.0,545.0,565.0,511.0,8,1
1082,2.51,-0.56,2.63,-3.36,0.89,2.52,629.0,586.0,547.0,569.0,513.0,8,1
1083,-0.01,-0.59,-2.09,-3.43,-0.13,2.06,629.0,581.0,544.0,571.0,518.0,8,1
1084,2.25,-0.67,-0.04,-1.8,-0.1,0.48,629.0,573.0,542.0,572.0,522.0,8,1
1085,4.04,-5.84,5.48,3.26,-0.12,-2.65,629.0,569.0,540.0,573.0,522.0,8,1
1086,7.6,-3.35,10.68,5.89,0.18,-3.79,627.0,581.0,542.0,566.0,509.0,8,1
1087,53.55,-27.2,22.35,-1.97,-5.78,1.26,626.0,587.0,548.0,566.0,510.0,8,1
1088,8.82,-0.24,7.63,-2.2,0.23,1.84,627.0,584.0,545.0,566.0,511.0,8,1
1089,2.51,0.76,0.88,-2.98,0.2,2.39,628.0,588.0,548.0,570.0,515.0,8,1
1090,-2.38,-1.53,-1.58,-3.39,0.8,1.99,629.0,578.0,545.0,571.0,519.0,8,1
1091,3.01,-2.94,1.02,-0.37,0.06,-0.68,630.0,570.0,540.0,572.0,520.0,8,1
1092,5.9,-7.08,7.93,5.63,-0.32,-4.28,628.0,572.0,540.0,572.0,519.0,8,1
1093,11.25,2.65,9.59,5.11,0.42,-3.12,628.0,592.0,548.0,566.0,507.0,8,1
1094,13.23,-1.04,18.58,-2.2,-0.25,1.78,626.0,579.0,541.0,564.0,509.0,8,1
1095,2.97,0.47,3.54,-2.36,1.05,2.12,626.0,585.0,546.0,567.0,511.0,8,1
1096,1.91,0.37,-0.39,-2.73,0.68,1.9,627.0,583.0,545.0,569.0,515.0,8,1
1097,-0.0,-0.93,-0.04,-1.4,-0.4,0.46,628.0,576.0,543.0,571.0,519.0,8,1
1098,4.27,-2.36,4.04,2.12,-0.32,-2.24,629.0,573.0,543.0,573.0,521.0,8,1
1099,6.98,-1.7,13.08,5.13,-0.71,-3.31,627.0,583.0,545.0,569.0,512.0,8,1
1100,43.0,-12.87,33.27,-1.95,-0.75,2.99,627.0,587.0,549.0,566.0,510.0,8,1
1101,8.44,-1.42,8.68,-2.39,0.56,2.2,627.0,583.0,546.0,568.0,510.0,8,1
1102,2.23,-1.69,1.46,-3.38,0.41,2.68,628.0,586.0,549.0,569.0,513.0,8,1
1103,0.2,-1.16,-1.23,-2.74,-0.24,1.74,630.0,577.0,545.0,571.0,517.0,8,1
1104,2.92,-1.79,1.12,0.02,-0.41,-0.68,631.0,569.0,540.0,572.0,519.0,8,1
1105,3.4,-5.77,8.03,6.32,-0.93,-3.99,628.0,573.0,540.0,572.0,520.0,8,1
1106,9.42,2.69,5.71,4.82,0.05,-3.42,626.0,591.0,547.0,568.0,508.0,8,1
1107,13.03,-3.29,19.31,-3.05,-0.31,1.66,626.0,580.0,540.0,565.0,508.0,8,1
1108,3.0,0.6,3.95,-3.12,0.98,2.58,627.0,586.0,548.0,568.0,511.0,8,1
1109,0.92,-0.11,0.03,-3.05,0.44,2.39,629.0,582.0,546.0,571.0,516.0,8,1
1110,-0.26,0.12,0.47,-1.48,0.44,0.75,630.0,573.0,542.0,571.0,518.0,8,1
1111,4.05,-4.75,4.51,3.63,-0.14,-2.94,631.0,571.0,541.0,572.0,520.0,8,1
1112,9.63,-4.09,11.27,5.37,0.37,-3.43,626.0,585.0,544.0,568.0,508.0,8,1
1113,19.8,2.54,28.74,-3.25,1.97,2.76,626.0,585.0,547.0,568.0,509.0,8,1
1114,8.24,0.13,7.5,-2.34,0.07,2.06,626.0,584.0,545.0,566.0,509.0,8,1
1115,0.9,0.62,0.82,-2.94,0.36,2.84,627.0,586.0,547.0,569.0,512.0,8,1
1116,-0.62,-0.28,-0.62,-2.81,0.87,2.09,627.0,577.0,543.0,571.0,516.0,8,1
1117,2.17,-2.2,1.45,0.36,-0.06,-0.35,630.0,573.0,541.0,572.0,518.0,8,1
1118,4.23,-8.6,7.54,5.94,0.86,-3.38,629.0,575.0,539.0,572.0,518.0,8,1
1119,6.68,-1.71,9.08,5.6,0.7,-3.44,627.0,591.0,546.0,569.0,506.0,8,1
1120,24.63,2.14,20.78,-2.39,-0.66,1.38,626.0,580.0,539.0,565.0,508.0,8,1
1121,2.77,1.37,4.98,-3.27,0.74,2.07,627.0,586.0,545.0,567.0,508.0,8,1
1122,1.84,-0.38,0.56,-3.68,0.17,2.28,627.0,585.0,547.0,570.0,513.0,8,1
1123,-0.09,-2.87,-1.78,-2.69,-0.56,1.33,630.0,579.0,544.0,572.0,518.0,8,1
1124,4.63,-2.99,3.33,1.47,-0.41,-1.22,632.0,575.0,541.0,573.0,520.0,8,1
1125,4.25,-5.77,6.39,7.68,1.68,-3.8,628.0,579.0,541.0,572.0,517.0,8,1
1126,5.78,8.49,5.57,5.09,0.9,-2.86,629.0,592.0,546.0,568.0,507.0,8,1
1127,12.49,-4.71,14.84,-1.92,-0.85,1.04,626.0,581.0,539.0,565.0,508.0,8,1
1128,3.95,-0.09,4.72,-3.02,0.43,1.85,627.0,586.0,545.0,568.0,511.0,8,1
1129,1.78,-0.08,-0.58,-3.02,-0.3,1.75,627.0,583.0,544.0,570.0,514.0,8,1
1130,1.59,-0.81,1.02,-1.13,-0.64,0.28,631.0,580.0,544.0,571.0,519.0,8,1
1131,3.07,-4.93,6.02,2.82,0.5,-1.63,630.0,577.0,543.0,573.0,521.0,8,1
1132,7.77,-1.96,12.21,6.1,0.65,-2.43,626.0,587.0,543.0,568.0,509.0,8,1
1133,3.5,8.22,32.36,-2.14,1.31,1.02,626.0,587.0,546.0,567.0,509.0,8,1
1134,6.65,-0.68,6.66,-2.68,0.08,1.68,625.0,587.0,546.0,568.0,510.0,8,1
1135,0.96,-0.13,2.88,-3.01,0.15,2.27,627.0,588.0,548.0,570.0,514.0,8,1
1136,0.52,-0.62,0.09,-2.29,0.08,1.47,629.0,580.0,545.0,572.0,519.0,8,1
1137,3.9,-2.91,3.72,1.28,-0.09,-0.86,631.0,574.0,541.0,573.0,521.0,8,1
1138,2.6,-8.09,7.29,7.08,-0.08,-4.12,626.0,580.0,539.0,572.0,518.0,8,1
1139,6.0,8.97,6.61,4.87,1.7,-2.63,625.0,594.0,546.0,571.0,511.0,8,1
1140,11.56,-0.58,11.94,-2.04,-1.22,0.99,623.0,585.0,540.0,566.0,510.0,8,1
1141,3.44,-1.45,4.26,-4.11,-0.23,2.31,626.0,587.0,545.0,569.0,512.0,8,1
1142,0.89,-0.62,0.09,-3.7,0.63,2.01,627.0,581.0,545.0,571.0,517.0,8,1
1143,2.52,-0.1,1.23,-0.76,0.07,0.18,629.0,574.0,542.0,572.0,521.0,8,1
1144,1.62,-4.48,4.44,4.98,0.13,-2.73,627.0,574.0,539.0,571.0,521.0,8,1
1145,6.19,1.76,5.96,6.26,0.02,-3.34,625.0,586.0,541.0,569.0,510.0,8,1
1146,24.42,-0.33,25.6,-2.29,-0.63,2.24,625.0,577.0,537.0,566.0,512.0,8,1
1147,1.45,-0.53,4.7,-2.42,1.39,1.61,624.0,583.0,540.0,565.0,511.0,8,1
1148,2.93,-1.7,-0.07,-3.18,0.43,2.15,625.0,582.0,543.0,569.0,515.0,8,1
1149,0.5,-0.89,0.04,-2.09,-0.57,0.93,627.0,581.0,544.0,572.0,519.0,8,1
1150,1.56,-2.5,2.75,0.63,0.03,-0.85,629.0,578.0,544.0,572.0,523.0,8,1
1151,4.08,-3.75,9.76,6.75,0.75,-3.35,627.0,577.0,543.0,572.0,521.0,8,1
1152,9.8,9.45,3.7,4.98,1.58,-2.45,626.0,596.0,551.0,570.0,509.0,8,1
1153,11.35,-3.26,14.75,-2.15,-1.55,1.29,625.0,583.0,543.0,566.0,511.0,8,1
1154,3.24,-0.01,3.32,-2.92,0.34,2.1,626.0,587.0,548.0,569.0,514.0,8,1
1155,1.58,1.03,0.41,-3.32,0.2,1.97,627.0,587.0,546.0,570.0,518.0,8,1
1156,0.36,-1.67,1.47,-1.37,0.02,0.65,630.0,581.0,545.0,572.0,521.0,8,1
1157,3.45,-5.47,5.62,2.54,0.02,-1.94,630.0,577.0,542.0,572.0,521.0,8,1
1158,4.59,-5.88,10.63,7.25,-0.01,-4.39,624.0,585.0,544.0,570.0,515.0,8,1
1159,7.04,30.38,23.73,-8.73,-0.87,4.04,622.0,584.0,542.0,569.0,511.0,8,1
1160,9.67,-1.47,8.13,-2.33,-0.39,1.57,623.0,585.0,543.0,568.0,511.0,8,1
1161,0.9,-1.26,4.35,-3.12,0.72,2.08,625.0,589.0,546.0,569.0,513.0,8,1
1162,2.88,-1.7,-0.07,-3.32,0.61,1.88,627.0,585.0,546.0,571.0,517.0,8,1
1163,2.49,-1.73,2.02,-0.24,-0.48,-0.05,629.0,578.0,544.0,573.0,521.0,8,1
1164,3.63,-6.23,6.35,4.4,0.65,-2.57,628.0,580.0,543.0,572.0,520.0,8,1
1165,5.1,5.2,7.74,5.51,-1.24,-3.6,625.0,591.0,545.0,568.0,510.0,8,1
1166,26.41,5.29,21.69,-3.28,-2.16,2.24,627.0,588.0,546.0,566.0,510.0,8,1
1167,3.46,-3.68,7.62,-3.24,0.79,2.39,628.0,586.0,547.0,566.0,512.0,8,1
1168,0.92,-1.59,2.97,-2.82,0.14,2.26,629.0,588.0,549.0,569.0,515.0,8,1
1169,2.01,-2.04,2.11,-1.47,-0.27,0.75,631.0,580.0,548.0,571.0,518.0,8,1
1170,1.99,-2.64,3.33,1.81,0.36,-1.17,632.0,580.0,547.0,571.0,520.0,8,1
1171,2.64,-3.41,4.51,4.01,0.45,-2.86,629.0,585.0,548.0,572.0,519.0,8,1
1172,9.97,2.39,12.01,5.64,-1.69,-3.89,625.0,589.0,545.0,568.0,511.0,8,1
1173,5.21,-3.97,16.69,-3.05,1.26,1.32,624.0,585.0,540.0,565.0,510.0,8,1
1174,2.71,0.07,3.8,-3.76,0.13,2.37,627.0,587.0,544.0,567.0,511.0,8,1
1175,2.74,-2.71,2.48,-3.31,-0.27,2.16,630.0,582.0,545.0,569.0,516.0,8,1
1176,2.12,-3.74,2.03,-1.37,-0.5,0.81,632.0,579.0,547.0,571.0,520.0,8,1
1177,3.43,-2.82,2.93,2.27,0.39,-1.08,631.0,577.0,545.0,571.0,521.0,8,1
1178,2.2,-3.47,9.48,7.1,0.47,-3.66,627.0,580.0,542.0,571.0,518.0,8,1
1179,12.45,12.3,-17.11,6.41,1.34,-3.04,617.0,577.0,532.0,564.0,508.0,8,1
1180,12.0,-0.88,10.13,-1.69,-0.41,1.02,618.0,579.0,532.0,562.0,508.0,8,1
1181,1.95,0.27,2.13,-3.46,-0.19,2.41,621.0,585.0,538.0,565.0,511.0,8,1
1182,1.45,-0.82,-0.2,-3.25,-0.48,2.04,626.0,584.0,540.0,569.0,516.0,8,1
1183,2.41,-1.61,3.57,-1.13,-0.37,0.34,629.0,577.0,541.0,573.0,521.0,8,1
1184,5.2,-8.06,8.3,4.28,1.32,-2.26,629.0,575.0,539.0,572.0,521.0,8,1
1185,4.32,2.04,6.63,7.1,-0.56,-4.54,624.0,588.0,540.0,565.0,510.0,8,1
1186,31.66,9.71,17.27,-2.97,-2.64,1.68,622.0,580.0,537.0,564.0,511.0,8,1
1187,5.77,-0.91,6.94,-3.01,-0.02,1.76,622.0,585.0,542.0,565.0,512.0,8,1
1188,3.13,-0.91,3.4,-3.26,0.29,2.38,626.0,587.0,544.0,568.0,514.0,8,1
1189,-0.76,-2.02,-0.05,-2.15,-0.12,1.93,628.0,587.0,546.0,570.0,520.0,8,1
1190,4.1,-2.55,2.83,0.11,0.37,0.09,631.0,579.0,545.0,572.0,522.0,8,1
1191,5.42,-7.17,6.23,5.09,0.55,-2.5,628.0,579.0,544.0,571.0,522.0,8,1
1192,7.58,0.27,9.95,6.15,0.06,-4.0,625.0,593.0,545.0,569.0,513.0,8,1
1193,17.76,-5.44,16.32,-2.72,1.01,1.04,623.0,581.0,536.0,564.0,512.0,8,1
1194,4.43,0.08,4.65,-2.62,0.49,1.56,624.0,589.0,544.0,568.0,515.0,8,1
1195,3.32,0.06,1.37,-3.26,0.11,2.02,626.0,590.0,546.0,570.0,517.0,8,1
1196,-0.35,-2.54,0.62,-2.07,-0.33,1.35,628.0,583.0,547.0,571.0,520.0,8,1
1197,3.91,-1.78,2.86,0.76,0.6,-0.51,630.0,577.0,544.0,572.0,522.0,8,1
1198,1.83,-5.61,7.52,7.09,-0.46,-4.08,628.0,581.0,541.0,572.0,522.0,8,1
1199,6.07,4.62,12.16,4.46,2.1,-2.44,628.0,601.0,551.0,571.0,512.0,8,1
1200,6.99,2.84,5.44,0.04,-0.01,-0.0,629.0,590.0,539.0,541.0,500.0,9,1
1201,7.11,2.63,5.63,-0.06,0.12,0.02,632.0,590.0,540.0,540.0,501.0,9,1
1202,6.96,2.79,5.62,-0.1,0.05,0.03,633.0,590.0,540.0,543.0,500.0,9,1
1203,7.04,2.73,5.43,-0.23,0.24,0.01,632.0,589.0,538.0,543.0,500.0,9,1
1204,7.24,2.4,5.7,-0.3,0.47,-0.02,631.0,589.0,537.0,545.0,498.0,9,1
1205,5.96,2.6,6.36,-0.23,0.38,-0.09,629.0,589.0,536.0,549.0,496.0,9,1
1206,6.35,2.47,6.02,-0.23,0.14,-0.12,628.0,589.0,536.0,552.0,496.0,9,1
1207,6.99,2.26,6.37,-0.25,0.25,-0.08,628.0,589.0,535.0,553.0,496.0,9,1
1208,5.83,2.59,6.67,-0.15,-0.22,-0.2,626.0,588.0,535.0,555.0,496.0,9,1
1209,5.87,2.33,7.13,-0.11,-0.77,-0.28,627.0,588.0,534.0,553.0,497.0,9,1
1210,10.23,3.35,9.04,-0.25,-0.89,-0.1,628.0,592.0,534.0,558.0,510.0,9,1
1211,6.2,5.32,7.84,-1.72,1.42,0.61,629.0,596.0,539.0,559.0,511.0,9,1
1212,6.36,0.19,5.5,-3.06,-0.69,1.43,626.0,594.0,538.0,560.0,512.0,9,1
1213,2.94,-2.02,1.92,-2.55,-0.17,1.28,626.0,596.0,542.0,564.0,514.0,9,1
1214,2.06,-3.95,2.38,-1.44,0.43,0.29,626.0,593.0,541.0,566.0,517.0,9,1
1215,4.66,-3.91,4.74,1.69,0.22,-1.37,627.0,592.0,540.0,567.0,517.0,9,1
1216,4.8,-3.75,10.97,5.37,-0.07,-3.11,625.0,595.0,538.0,565.0,513.0,9,1
1217,40.58,-2.33,17.01,-1.66,-1.49,1.68,626.0,597.0,542.0,563.0,510.0,9,1
1218,9.23,2.3,6.41,-2.12,0.03,1.68,624.0,599.0,542.0,561.0,511.0,9,1
1219,3.4,-0.97,2.74,-2.57,0.19,2.12,624.0,598.0,542.0,564.0,512.0,9,1
1220,0.45,-0.45,-1.59,-2.05,0.24,1.39,623.0,595.0,0.0,566.0,515.0,9,1
1221,1.22,-1.34,0.3,-0.05,-0.42,-0.39,622.0,592.0,538.0,567.0,517.0,9,1
1222,2.99,-3.68,6.15,4.71,0.16,-2.86,622.0,593.0,540.0,568.0,517.0,9,1
1223,8.51,2.03,9.5,4.94,0.43,-2.55,625.0,600.0,543.0,565.0,510.0,9,1
1224,32.24,9.58,22.65,-1.6,-2.25,1.06,623.0,597.0,540.0,563.0,510.0,9,1
1225,4.51,1.51,5.51,-2.62,0.54,1.78,622.0,599.0,543.0,564.0,511.0,9,1
1226,0.6,-0.74,1.53,-3.53,0.26,2.15,624.0,601.0,539.0,566.0,514.0,9,1
1227,0.34,-2.26,-0.45,-3.05,0.22,1.33,623.0,596.0,541.0,568.0,517.0,9,1
1228,3.84,-3.16,3.47,1.31,-0.53,-1.38,623.0,593.0,540.0,568.0,520.0,9,1
1229,1.81,-5.02,7.19,5.7,0.69,-3.16,621.0,595.0,0.0,568.0,515.0,9,1
1230,10.85,5.32,9.09,4.66,0.38,-2.47,625.0,600.0,543.0,566.0,510.0,9,1
1231,14.51,-3.08,18.36,-1.75,-1.25,1.14,618.0,597.0,533.0,559.0,509.0,9,1
1232,3.09,0.67,4.12,-2.63,1.01,2.3,618.0,597.0,534.0,563.0,509.0,9,1
1233,2.47,0.69,0.72,-3.23,0.71,2.25,620.0,599.0,538.0,565.0,514.0,9,1
1234,0.2,-2.43,1.36,-2.46,0.57,1.23,624.0,598.0,535.0,569.0,518.0,9,1
1235,4.01,-3.59,4.99,2.0,-0.34,-1.69,624.0,598.0,540.0,569.0,520.0,9,1
1236,1.8,-2.59,10.14,6.92,-0.1,-3.84,621.0,597.0,0.0,566.0,514.0,9,1
1237,8.0,21.62,-13.75,4.61,2.79,-1.82,617.0,589.0,535.0,561.0,508.0,9,1
1238,9.62,0.76,10.41,-1.86,-0.23,0.95,616.0,595.0,535.0,561.0,509.0,9,1
1239,0.06,-0.73,4.29,-3.67,1.17,2.36,619.0,600.0,541.0,564.0,511.0,9,1
1240,2.12,0.8,1.62,-3.75,0.94,2.15,620.0,600.0,0.0,566.0,515.0,9,1
1241,3.02,-1.56,0.44,-0.77,-0.87,0.05,622.0,600.0,542.0,568.0,518.0,9,1
1242,1.92,-4.15,5.3,2.85,0.46,-1.78,623.0,599.0,542.0,569.0,520.0,9,1
1243,5.67,-3.41,12.43,6.92,0.12,-3.74,621.0,596.0,540.0,567.0,512.0,9,1
1244,48.91,-16.62,14.96,-2.9,-1.42,2.48,618.0,594.0,539.0,565.0,512.0,9,1
1245,10.49,1.11,6.35,-2.31,-0.67,1.21,620.0,598.0,539.0,563.0,509.0,9,1
1246,5.33,-0.88,2.3,-3.66,0.42,2.37,621.0,602.0,542.0,566.0,512.0,9,1
1247,-0.25,-1.34,-0.52,-3.22,0.29,1.68,622.0,602.0,540.0,567.0,517.0,9,1
1248,4.63,-2.02,-0.41,-0.58,-0.05,-0.38,626.0,602.0,542.0,569.0,519.0,9,1
1249,4.0,-5.22,6.39,4.73,-0.23,-2.91,624.0,603.0,543.0,569.0,520.0,9,1
1250,8.66,-0.85,9.61,6.48,0.12,-3.42,623.0,601.0,543.0,565.0,507.0,9,1
1251,32.87,10.07,19.97,-1.2,-2.14,1.12,620.0,597.0,536.0,563.0,510.0,9,1
1252,6.62,0.11,6.0,-1.77,0.55,1.42,620.0,600.0,541.0,565.0,511.0,9,1
1253,2.78,0.29,1.04,-2.68,0.17,1.91,622.0,602.0,543.0,566.0,513.0,9,1
1254,-0.56,-1.21,-0.89,-2.31,-0.02,1.08,623.0,603.0,535.0,567.0,517.0,9,1
1255,2.8,-0.71,3.06,0.24,-0.16,-0.82,624.0,603.0,543.0,569.0,520.0,9,1
1256,4.26,-5.36,8.77,5.56,0.87,-3.36,623.0,600.0,540.0,570.0,520.0,9,1
1257,13.3,5.81,7.55,5.07,1.37,-2.53,624.0,602.0,546.0,567.0,509.0,9,1
1258,11.56,-4.7,16.55,-1.96,-0.42,1.36,622.0,599.0,539.0,563.0,510.0,9,1
1259,3.66,0.66,4.23,-2.76,0.55,2.21,622.0,602.0,544.0,565.0,513.0,9,1
1260,0.97,-0.35,0.32,-2.89,0.16,1.88,622.0,604.0,539.0,568.0,515.0,9,1
1261,-0.24,-0.96,0.6,-1.65,-0.17,0.54,624.0,602.0,543.0,569.0,519.0,9,1
1262,3.12,-2.78,4.44,1.98,0.16,-1.54,625.0,603.0,543.0,570.0,521.0,9,1
1263,5.14,-3.23,9.18,5.99,0.45,-3.31,623.0,601.0,542.0,569.0,516.0,9,1
1264,-0.62,49.41,0.65,3.53,1.09,-1.5,620.0,597.0,538.0,564.0,508.0,9,1
1265,10.96,0.24,10.09,-1.54,-0.49,1.08,621.0,599.0,539.0,564.0,509.0,9,1
1266,1.9,-0.56,3.85,-2.97,0.52,2.31,622.0,602.0,542.0,566.0,512.0,9,1
1267,0.07,-2.75,-0.74,-3.25,0.5,1.64,622.0,603.0,0.0,568.0,516.0,9,1
1268,1.25,-1.93,1.37,-1.17,-0.33,-0.08,624.0,604.0,542.0,570.0,519.0,9,1
1269,3.07,-5.34,6.41,3.69,0.13,-2.59,622.0,601.0,541.0,569.0,521.0,9,1
1270,6.06,0.81,9.14,5.81,-0.13,-3.22,622.0,601.0,541.0,566.0,510.0,9,1
1271,37.34,0.78,25.58,-1.95,-2.74,1.46,619.0,597.0,534.0,563.0,510.0,9,1
1272,6.02,1.02,4.97,-2.56,0.96,1.7,620.0,600.0,538.0,563.0,511.0,9,1
1273,1.84,-0.99,2.07,-3.15,1.02,1.98,622.0,602.0,0.0,567.0,515.0,9,1
1274,-0.55,-1.06,-0.48,-2.8,-0.09,1.15,623.0,604.0,544.0,569.0,520.0,9,1
1275,3.47,-2.23,2.56,0.4,-0.3,-0.69,625.0,604.0,544.0,571.0,523.0,9,1
1276,4.02,-5.06,7.09,5.77,0.59,-2.98,624.0,600.0,542.0,569.0,520.0,9,1
1277,7.85,5.04,6.01,5.77,-0.2,-3.08,622.0,599.0,539.0,563.0,509.0,9,1
1278,13.85,-7.75,20.37,-1.1,-1.18,0.57,618.0,594.0,528.0,559.0,510.0,9,1
1279,3.45,1.64,3.6,-3.17,0.74,2.22,621.0,599.0,537.0,562.0,513.0,9,1
1280,1.95,-1.39,2.18,-3.6,0.33,1.95,622.0,601.0,539.0,565.0,517.0,9,1
1281,1.78,-3.62,-0.76,-2.29,-0.08,0.9,624.0,602.0,542.0,567.0,519.0,9,1
1282,2.14,-3.08,3.51,1.54,0.13,-1.14,624.0,603.0,542.0,569.0,521.0,9,1
1283,4.0,-4.69,7.27,6.51,0.77,-3.05,622.0,598.0,0.0,567.0,519.0,9,1
1284,7.77,9.15,2.6,5.37,1.66,-2.32,621.0,593.0,540.0,565.0,516.0,9,1
1285,8.04,1.32,12.02,-1.36,0.96,0.37,619.0,594.0,533.0,560.0,510.0,9,1
1286,3.41,0.82,5.14,-3.39,0.04,1.91,622.0,599.0,539.0,564.0,512.0,9,1
1287,0.18,-2.15,1.46,-3.42,0.25,1.76,623.0,602.0,0.0,565.0,515.0,9,1
1288,2.39,-2.21,1.34,-2.01,0.12,0.98,625.0,601.0,542.0,567.0,519.0,9,1
1289,3.18,-4.1,4.4,2.11,0.23,-1.09,627.0,603.0,542.0,568.0,521.0,9,1
1290,3.8,-3.7,9.06,6.53,-0.53,-3.34,623.0,600.0,540.0,569.0,519.0,9,1
1291,7.46,9.81,4.84,4.18,0.51,-2.18,622.0,592.0,544.0,568.0,515.0,9,1
1292,10.87,1.0,9.68,-2.07,0.34,0.77,623.0,599.0,541.0,567.0,512.0,9,1
1293,2.82,-0.62,4.39,-3.67,-0.01,2.17,623.0,602.0,544.0,567.0,515.0,9,1
1294,2.18,-2.35,1.55,-3.4,0.11,1.85,625.0,604.0,544.0,567.0,518.0,9,1
1295,3.14,-1.65,0.55,-0.73,-0.43,0.08,626.0,604.0,544.0,569.0,521.0,9,1
1296,2.83,-3.34,3.75,3.92,-0.19,-2.24,626.0,602.0,542.0,569.0,521.0,9,1
1297,3.84,-1.64,7.33,5.85,-0.13,-3.23,622.0,602.0,541.0,569.0,517.0,9,1
1298,2.82,29.07,29.28,-8.18,-1.18,2.35,621.0,597.0,540.0,568.0,515.0,9,1
1299,8.33,0.73,8.61,-1.66,-0.55,0.86,621.0,598.0,538.0,565.0,513.0,9,1
1300,4.03,-0.59,4.78,-3.39,0.38,2.09,622.0,601.0,540.0,566.0,515.0,9,1
1301,1.21,-2.22,1.43,-2.84,0.57,1.63,624.0,603.0,0.0,567.0,519.0,9,1
1302,3.89,-1.2,1.61,-0.45,-0.19,0.06,625.0,604.0,543.0,570.0,521.0,9,1
1303,3.3,-3.2,5.53,4.11,0.09,-1.96,625.0,602.0,543.0,570.0,522.0,9,1
1304,4.53,-0.56,8.5,5.77,-0.32,-2.74,622.0,603.0,541.0,568.0,516.0,9,1
1305,23.6,-18.28,24.01,-3.7,-2.75,1.84,623.0,597.0,540.0,566.0,516.0,9,1
1306,6.5,1.18,5.06,-2.69,0.54,1.49,621.0,602.0,540.0,565.0,513.0,9,1
1307,4.92,-3.2,4.61,-3.87,0.55,2.2,624.0,603.0,543.0,566.0,517.0,9,1
1308,-0.37,-0.93,0.44,-2.21,-0.33,1.02,624.0,605.0,544.0,568.0,521.0,9,1
1309,2.82,-1.61,1.82,0.04,-0.3,-0.39,627.0,605.0,545.0,570.0,522.0,9,1
1310,3.12,-4.9,6.59,4.65,0.85,-2.2,625.0,603.0,544.0,571.0,523.0,9,1
1311,4.23,1.4,6.76,5.67,-0.65,-2.95,622.0,603.0,543.0,568.0,515.0,9,1
1312,26.22,-5.85,25.2,-2.78,-1.27,1.39,619.0,598.0,536.0,565.0,514.0,9,1
1313,5.03,1.0,4.23,-2.27,0.52,1.26,619.0,602.0,542.0,566.0,514.0,9,1
1314,3.54,-0.99,3.31,-3.0,0.53,1.98,620.0,604.0,544.0,568.0,517.0,9,1
1315,0.99,-2.48,1.71,-2.0,0.31,1.46,622.0,605.0,508.0,569.0,521.0,9,1
1316,3.15,-3.14,3.04,0.94,0.2,-0.42,623.0,604.0,543.0,570.0,523.0,9,1
1317,2.92,-1.63,4.32,4.21,0.1,-2.35,621.0,604.0,543.0,570.0,521.0,9,1
1318,5.62,1.75,8.61,4.87,-0.22,-2.79,620.0,602.0,543.0,566.0,515.0,9,1
1319,21.25,13.19,18.11,-1.33,-0.86,0.79,619.0,601.0,538.0,563.0,515.0,9,1
1320,5.07,0.12,4.64,-3.18,0.16,2.01,621.0,604.0,543.0,563.0,513.0,9,1
1321,5.33,-2.44,5.17,-3.66,0.9,2.51,623.0,604.0,0.0,564.0,518.0,9,1
1322,1.36,-2.37,0.39,-2.15,-0.38,1.57,624.0,607.0,546.0,565.0,519.0,9,1
1323,2.85,-2.56,2.94,0.14,0.54,0.17,626.0,607.0,545.0,567.0,520.0,9,1
1324,3.48,-5.46,6.71,4.99,0.74,-2.49,623.0,604.0,543.0,567.0,521.0,9,1
1325,-0.04,0.84,7.63,7.4,-1.14,-4.24,618.0,600.0,540.0,565.0,515.0,9,1
1326,24.36,-9.41,20.41,-3.17,2.17,1.75,617.0,598.0,536.0,562.0,514.0,9,1
1327,5.51,1.53,3.08,-2.78,0.3,1.43,620.0,601.0,541.0,563.0,513.0,9,1
1328,5.82,-0.97,5.78,-3.64,0.38,2.06,620.0,604.0,0.0,565.0,517.0,9,1
1329,1.3,-2.25,1.88,-1.76,-0.41,1.0,624.0,605.0,545.0,566.0,520.0,9,1
1330,3.35,-1.87,2.98,0.26,0.21,-0.09,626.0,606.0,545.0,567.0,522.0,9,1
1331,4.72,-3.9,6.88,3.7,0.96,-1.63,624.0,605.0,545.0,568.0,521.0,9,1
1332,8.69,4.11,9.33,5.84,-1.3,-3.12,618.0,600.0,541.0,564.0,511.0,9,1
1333,20.39,5.27,17.39,-3.21,-0.72,2.37,616.0,603.0,543.0,563.0,512.0,9,1
1334,4.15,-2.71,6.77,-2.91,0.09,1.76,619.0,605.0,545.0,564.0,515.0,9,1
1335,1.74,-2.11,4.17,-2.98,0.02,1.72,624.0,607.0,548.0,566.0,518.0,9,1
1336,2.69,-3.87,3.23,-1.8,0.66,1.08,626.0,609.0,549.0,568.0,520.0,9,1
1337,4.5,-3.98,4.93,1.15,0.28,-0.83,628.0,609.0,0.0,568.0,522.0,9,1
1338,3.64,-5.91,8.0,6.41,0.78,-3.93,621.0,603.0,0.0,569.0,521.0,9,1
1339,5.29,5.67,1.84,5.87,-0.0,-3.23,618.0,601.0,545.0,567.0,512.0,9,1
1340,1.41,-5.16,13.23,-1.61,-0.56,0.82,615.0,598.0,534.0,562.0,511.0,9,1
1341,2.59,0.21,4.25,-2.47,0.62,1.63,617.0,601.0,540.0,564.0,513.0,9,1
1342,3.27,-2.37,3.81,-2.35,0.24,1.37,620.0,603.0,542.0,565.0,515.0,9,1
1343,2.5,-1.38,2.28,-1.05,-0.15,0.62,622.0,604.0,0.0,567.0,518.0,9,1
1344,2.77,-2.69,5.23,1.29,0.08,-0.82,623.0,605.0,422.0,567.0,520.0,9,1
1345,3.72,-2.71,9.31,5.21,-0.01,-2.91,622.0,602.0,0.0,567.0,518.0,9,1
1346,28.0,6.11,32.06,-5.53,-8.44,2.32,618.0,598.0,537.0,565.0,514.0,9,1
1347,9.15,0.86,6.38,-1.29,0.35,0.68,619.0,600.0,539.0,564.0,513.0,9,1
1348,4.92,-1.76,5.82,-2.68,0.24,1.64,620.0,603.0,543.0,566.0,515.0,9,1
1349,1.31,-1.15,1.67,-2.69,0.09,1.39,623.0,604.0,0.0,567.0,518.0,9,1
1350,6.07,2.55,6.36,-0.02,0.03,-0.01,615.0,593.0,542.0,549.0,505.0,10,1
1351,6.31,2.4,6.25,-0.07,-0.01,0.0,614.0,594.0,542.0,549.0,505.0,10,1
1352,5.99,2.57,6.37,-0.06,0.0,-0.01,615.0,593.0,543.0,549.0,505.0,10,1
1353,6.52,2.39,6.3,-0.18,0.09,0.07,615.0,593.0,543.0,550.0,506.0,10,1
1354,6.02,2.34,6.56,-0.08,0.15,-0.0,615.0,593.0,542.0,549.0,505.0,10,1
1355,5.87,2.23,6.65,-0.05,0.03,-0.05,616.0,595.0,540.0,549.0,503.0,10,1
1356,6.25,2.49,6.17,-0.18,-0.02,0.04,616.0,593.0,539.0,548.0,501.0,10,1
1357,5.76,2.08,6.77,-0.31,0.28,0.12,617.0,592.0,534.0,546.0,497.0,10,1
1358,5.06,2.0,7.36,0.01,-0.25,-0.07,617.0,594.0,530.0,544.0,497.0,10,1
1359,8.26,2.96,7.11,0.14,-1.39,-0.22,617.0,595.0,529.0,552.0,504.0,10,1
1360,6.57,3.63,8.32,-0.44,1.15,0.07,621.0,597.0,534.0,554.0,513.0,10,1
1361,7.81,3.55,6.46,-1.74,0.07,0.75,622.0,600.0,537.0,555.0,513.0,10,1
1362,5.66,0.2,7.06,-2.57,-0.36,1.22,623.0,600.0,538.0,556.0,513.0,10,1
1363,3.45,-2.64,3.86,-2.5,0.42,0.93,622.0,603.0,538.0,557.0,514.0,10,1
1364,2.65,-3.67,2.44,-0.47,-0.3,-0.18,622.0,604.0,537.0,557.0,515.0,10,1
1365,2.99,-2.62,2.98,2.59,0.08,-1.6,621.0,603.0,538.0,559.0,516.0,10,1
1366,2.31,0.85,5.76,4.61,0.9,-2.4,621.0,601.0,540.0,559.0,516.0,10,1
1367,20.15,-0.72,32.46,-3.16,1.89,1.5,620.0,599.0,538.0,559.0,515.0,10,1
1368,7.05,4.8,4.27,-1.29,0.07,0.77,623.0,600.0,542.0,559.0,514.0,10,1
1369,4.76,-0.64,4.32,-2.71,0.0,1.66,621.0,600.0,540.0,560.0,514.0,10,1
1370,-0.36,-1.25,-1.97,-2.31,-0.18,1.27,620.0,602.0,540.0,561.0,516.0,10,1
1371,1.18,-0.89,0.44,-0.54,-0.19,-0.29,618.0,603.0,0.0,561.0,517.0,10,1
1372,3.71,-2.84,5.8,3.47,-0.44,-2.6,618.0,603.0,0.0,562.0,517.0,10,1
1373,9.53,2.77,10.48,3.84,1.23,-2.25,622.0,602.0,544.0,562.0,514.0,10,1
1374,23.39,8.7,20.54,-1.58,-2.63,1.22,623.0,604.0,546.0,561.0,514.0,10,1
1375,6.94,1.0,5.6,-2.64,0.23,2.15,623.0,605.0,546.0,561.0,514.0,10,1
1376,1.17,-0.76,0.84,-3.27,0.76,2.26,619.0,606.0,542.0,562.0,516.0,10,1
1377,-0.17,-0.77,-0.7,-2.27,0.74,1.01,618.0,607.0,0.0,564.0,517.0,10,1
1378,2.54,-1.86,1.92,1.89,-0.59,-1.64,618.0,604.0,505.0,564.0,519.0,10,1
1379,3.82,-2.44,7.49,5.02,0.09,-2.89,620.0,604.0,541.0,563.0,516.0,10,1
1380,15.53,8.68,12.26,3.92,0.96,-1.76,624.0,604.0,548.0,563.0,513.0,10,1
1381,13.52,-1.2,15.31,-1.79,-1.3,1.21,623.0,603.0,545.0,561.0,513.0,10,1
1382,3.94,0.64,3.71,-3.11,0.3,2.44,623.0,606.0,546.0,562.0,515.0,10,1
1383,0.45,0.45,-1.05,-3.39,0.53,1.88,620.0,607.0,0.0,563.0,518.0,10,1
1384,-0.03,-1.06,0.56,-1.22,-0.34,-0.1,622.0,607.0,541.0,565.0,521.0,10,1
1385,1.2,-4.39,5.12,4.76,0.07,-3.03,619.0,605.0,539.0,565.0,520.0,10,1
1386,7.15,0.49,8.1,5.14,0.47,-2.96,621.0,604.0,544.0,564.0,513.0,10,1
1387,41.29,-6.86,23.93,-1.98,-5.11,1.52,622.0,602.0,546.0,563.0,513.0,10,1
1388,6.93,1.06,6.92,-2.24,-0.02,1.75,623.0,604.0,545.0,563.0,513.0,10,1
1389,2.34,0.13,1.51,-3.06,0.68,2.22,622.0,606.0,545.0,564.0,516.0,10,1
1390,-1.56,-1.19,0.37,-3.01,-0.07,1.12,620.0,607.0,0.0,565.0,519.0,10,1
1391,1.62,-2.32,3.12,0.97,0.03,-1.35,621.0,605.0,540.0,566.0,522.0,10,1
1392,3.71,-1.97,7.4,5.03,0.67,-3.09,620.0,603.0,0.0,565.0,518.0,10,1
1393,13.13,7.49,9.88,3.56,1.02,-1.88,625.0,605.0,549.0,565.0,512.0,10,1
1394,11.87,-1.22,15.85,-1.56,-1.31,0.95,622.0,602.0,544.0,562.0,513.0,10,1
1395,4.86,1.59,4.7,-2.67,0.44,2.63,622.0,605.0,545.0,564.0,514.0,10,1
1396,1.0,-1.61,-0.1,-3.09,0.95,2.29,620.0,607.0,542.0,565.0,516.0,10,1
1397,-1.46,-0.94,-0.58,-1.89,0.11,0.71,619.0,606.0,534.0,566.0,520.0,10,1
1398,1.47,-4.76,3.54,3.27,-0.39,-2.6,618.0,604.0,540.0,566.0,522.0,10,1
1399,7.29,-1.0,8.14,4.95,-0.18,-2.95,621.0,604.0,543.0,565.0,515.0,10,1
1400,10.6,49.01,39.42,-6.65,-2.05,3.31,622.0,604.0,546.0,562.0,512.0,10,1
1401,9.36,0.43,8.54,-2.37,-0.23,1.87,622.0,603.0,546.0,563.0,512.0,10,1
1402,2.89,-0.39,2.24,-3.36,0.1,2.6,620.0,604.0,544.0,564.0,515.0,10,1
1403,-1.77,0.41,-2.5,-3.04,0.34,1.54,618.0,606.0,0.0,565.0,519.0,10,1
1404,0.4,-0.7,0.85,-0.32,-0.36,-0.83,618.0,604.0,539.0,567.0,522.0,10,1
1405,1.19,-4.54,4.94,5.51,0.79,-3.04,616.0,604.0,542.0,566.0,521.0,10,1
1406,9.93,2.61,8.69,4.78,0.92,-2.59,623.0,604.0,547.0,565.0,513.0,10,1
1407,36.35,-0.72,24.01,-1.64,-1.28,1.1,623.0,603.0,549.0,563.0,513.0,10,1
1408,6.91,0.92,7.05,-2.59,0.06,2.13,624.0,604.0,549.0,564.0,514.0,10,1
1409,0.51,-0.57,1.46,-3.03,0.12,2.25,620.0,605.0,544.0,565.0,517.0,10,1
1410,-1.91,-0.64,-0.52,-1.98,-0.15,1.02,621.0,606.0,0.0,566.0,521.0,10,1
1411,0.4,-1.1,1.56,1.47,0.5,-1.28,620.0,606.0,539.0,567.0,523.0,10,1
1412,2.71,-1.77,5.36,3.99,0.16,-2.96,621.0,605.0,545.0,567.0,520.0,10,1
1413,15.95,6.16,15.23,3.37,1.4,-2.06,625.0,606.0,549.0,566.0,514.0,10,1
1414,20.57,1.1,15.07,-2.02,-0.57,1.48,624.0,605.0,548.0,564.0,513.0,10,1
1415,5.37,-0.06,5.16,-3.0,-0.02,2.75,623.0,607.0,550.0,566.0,515.0,10,1
1416,-0.46,-0.68,0.29,-3.41,0.37,2.45,622.0,607.0,547.0,567.0,518.0,10,1
1417,-1.87,-0.65,-0.03,-2.84,0.32,1.13,623.0,609.0,531.0,567.0,523.0,10,1
1418,2.05,-3.24,3.24,2.41,0.42,-2.1,622.0,606.0,544.0,570.0,524.0,10,1
1419,3.49,-1.45,7.49,6.14,-0.45,-4.11,620.0,605.0,545.0,568.0,518.0,10,1
1420,15.26,11.02,-8.84,4.07,1.53,-2.25,621.0,602.0,548.0,564.0,510.0,10,1
1421,12.9,0.08,8.46,-1.75,-0.59,1.32,620.0,604.0,545.0,562.0,510.0,10,1
1422,2.11,0.06,3.33,-2.94,0.08,2.47,623.0,606.0,546.0,564.0,513.0,10,1
1423,-0.64,0.33,-1.36,-2.5,0.7,1.74,620.0,606.0,0.0,566.0,519.0,10,1
1424,0.52,-0.24,-0.85,-0.73,0.18,-0.16,624.0,608.0,544.0,567.0,522.0,10,1
1425,2.35,-3.03,4.16,3.17,-0.08,-2.67,623.0,607.0,545.0,568.0,524.0,10,1
1426,11.39,-0.16,11.65,4.79,-0.68,-3.04,622.0,605.0,545.0,565.0,512.0,10,1
1427,17.9,-2.24,29.68,-2.69,0.5,1.92,622.0,603.0,547.0,563.0,513.0,10,1
1428,7.81,2.02,5.09,-2.61,-0.41,2.45,622.0,606.0,549.0,565.0,513.0,10,1
1429,1.45,0.32,-0.44,-3.55,0.79,3.03,621.0,608.0,547.0,566.0,517.0,10,1
1430,-2.22,-0.64,-2.86,-3.28,0.25,1.7,622.0,609.0,544.0,568.0,522.0,10,1
1431,1.56,-1.63,1.0,1.09,-0.37,-1.42,623.0,608.0,539.0,568.0,523.0,10,1
1432,3.9,-5.25,5.06,5.47,0.6,-3.7,622.0,607.0,541.0,567.0,522.0,10,1
1433,10.21,-0.23,11.11,5.23,0.21,-3.34,623.0,606.0,549.0,567.0,513.0,10,1
1434,24.38,7.12,25.47,-1.63,-2.33,1.48,621.0,603.0,546.0,563.0,514.0,10,1
1435,6.65,1.59,5.13,-2.85,-0.03,2.51,621.0,607.0,549.0,564.0,513.0,10,1
1436,0.9,0.27,0.38,-4.06,1.6,3.0,621.0,609.0,0.0,565.0,519.0,10,1
1437,-1.8,0.04,-1.54,-3.26,0.29,1.43,623.0,610.0,544.0,566.0,524.0,10,1
1438,1.92,-0.7,0.16,1.53,-0.11,-1.49,624.0,609.0,545.0,568.0,524.0,10,1
1439,3.49,-5.67,7.36,6.34,1.63,-3.53,623.0,608.0,546.0,568.0,522.0,10,1
1440,14.98,4.05,11.38,5.73,0.67,-3.11,624.0,607.0,550.0,566.0,510.0,10,1
1441,13.15,-3.09,21.05,-2.48,0.22,1.56,622.0,605.0,546.0,564.0,512.0,10,1
1442,3.12,2.21,3.41,-2.55,0.19,2.44,623.0,607.0,549.0,565.0,515.0,10,1
1443,0.89,-0.14,-1.13,-2.85,0.42,2.12,623.0,607.0,546.0,566.0,518.0,10,1
1444,-0.73,0.11,-1.1,-2.34,0.21,0.77,624.0,608.0,544.0,567.0,522.0,10,1
1445,2.12,-1.96,2.26,1.67,-0.35,-1.86,624.0,609.0,545.0,568.0,524.0,10,1
1446,5.11,-4.66,8.73,5.98,0.67,-3.7,624.0,607.0,0.0,568.0,522.0,10,1
1447,15.68,11.04,5.75,4.52,1.16,-2.54,626.0,606.0,553.0,566.0,511.0,10,1
1448,11.86,-3.73,15.8,-1.91,-0.98,1.51,626.0,606.0,547.0,565.0,514.0,10,1
1449,4.15,0.63,3.0,-2.43,0.24,2.13,626.0,608.0,550.0,567.0,515.0,10,1
1450,0.21,-0.98,-1.3,-3.09,0.65,2.2,625.0,609.0,549.0,566.0,519.0,10,1
1451,-0.4,-0.81,0.53,-1.91,-0.41,0.6,627.0,610.0,545.0,569.0,522.0,10,1
1452,1.76,-3.18,4.07,1.88,-0.12,-1.96,628.0,610.0,547.0,569.0,524.0,10,1
1453,5.91,-5.2,10.1,5.83,0.39,-3.92,625.0,608.0,547.0,568.0,519.0,10,1
1454,3.69,57.12,2.98,3.29,1.4,-1.96,620.0,603.0,545.0,563.0,510.0,10,1
1455,10.86,0.71,7.21,-1.64,0.04,1.45,622.0,605.0,546.0,564.0,511.0,10,1
1456,3.48,0.11,2.66,-2.79,0.51,2.33,622.0,607.0,549.0,566.0,515.0,10,1
1457,0.78,-1.07,-0.15,-2.96,0.14,1.74,624.0,610.0,0.0,567.0,519.0,10,1
1458,2.23,-0.79,1.12,-0.82,-0.41,-0.26,624.0,609.0,546.0,568.0,523.0,10,1
1459,2.17,-2.18,3.78,2.92,-0.25,-2.37,623.0,608.0,546.0,569.0,524.0,10,1
1460,7.59,2.03,10.26,5.12,-0.36,-2.97,623.0,607.0,548.0,568.0,516.0,10,1
1461,61.88,-20.71,31.18,0.38,-8.63,1.73,621.0,602.0,545.0,563.0,511.0,10,1
1462,7.09,-1.07,7.55,-1.51,0.49,1.72,622.0,605.0,547.0,564.0,512.0,10,1
1463,4.17,-1.26,3.07,-3.07,1.01,2.65,622.0,607.0,550.0,565.0,514.0,10,1
1464,1.19,-1.49,0.7,-3.21,-0.18,1.8,621.0,609.0,0.0,568.0,518.0,10,1
1465,0.59,-1.32,0.5,-1.37,-0.46,0.11,624.0,610.0,547.0,568.0,523.0,10,1
1466,1.48,-2.21,3.38,1.9,0.2,-1.73,625.0,609.0,548.0,569.0,524.0,10,1
1467,4.71,-4.57,7.87,6.42,0.08,-3.98,622.0,607.0,0.0,567.0,520.0,10,1
1468,14.99,14.6,-18.63,5.61,1.44,-2.73,620.0,599.0,547.0,563.0,512.0,10,1
1469,14.71,-1.04,9.01,-1.23,-1.3,1.09,621.0,604.0,543.0,562.0,511.0,10,1
1470,3.42,-0.0,3.22,-3.27,0.79,2.58,622.0,607.0,547.0,565.0,513.0,10,1
1471,0.41,0.37,-0.25,-3.36,0.53,2.22,622.0,609.0,0.0,566.0,518.0,10,1
1472,2.01,-0.52,-0.22,-1.49,-0.57,0.14,624.0,609.0,546.0,568.0,523.0,10,1
1473,2.11,-3.2,3.55,2.41,-0.17,-2.31,626.0,609.0,545.0,568.0,523.0,10,1
1474,3.06,-5.54,9.77,7.13,0.36,-4.84,621.0,605.0,0.0,568.0,519.0,10,1
1475,42.68,-4.16,44.82,-8.73,-8.73,4.57,620.0,602.0,544.0,565.0,513.0,10,1
1476,10.01,-0.22,6.46,-0.94,-0.25,1.12,621.0,604.0,546.0,564.0,512.0,10,1
1477,2.76,-0.8,2.29,-2.47,1.09,2.37,623.0,606.0,546.0,566.0,514.0,10,1
1478,0.31,-2.13,-1.62,-2.42,0.47,1.08,622.0,607.0,0.0,568.0,519.0,10,1
1479,2.09,-0.61,0.74,-0.83,-0.65,-0.35,624.0,610.0,546.0,570.0,523.0,10,1
1480,3.08,-4.13,6.3,3.17,0.01,-2.52,624.0,609.0,545.0,570.0,523.0,10,1
1481,10.16,-0.16,11.5,6.01,-0.51,-3.34,623.0,605.0,548.0,566.0,513.0,10,1
1482,22.82,6.13,24.1,-2.06,-2.51,1.72,621.0,604.0,545.0,562.0,513.0,10,1
1483,6.59,0.17,4.87,-2.13,0.0,1.68,621.0,605.0,547.0,565.0,513.0,10,1
1484,2.36,-0.94,1.59,-3.24,0.84,2.31,622.0,609.0,550.0,567.0,517.0,10,1
1485,0.69,-2.77,-0.83,-3.0,0.42,1.57,624.0,610.0,549.0,569.0,522.0,10,1
1486,2.97,-2.6,1.84,0.16,-0.26,-0.49,627.0,610.0,548.0,571.0,525.0,10,1
1487,1.18,-7.87,5.01,5.78,-0.06,-3.29,624.0,607.0,545.0,570.0,524.0,10,1
1488,8.13,1.94,5.89,5.83,-0.65,-3.16,624.0,607.0,551.0,568.0,513.0,10,1
1489,13.21,-3.56,23.81,-2.39,0.8,1.04,621.0,603.0,542.0,564.0,515.0,10,1
1490,2.64,2.24,3.85,-2.13,0.07,1.41,623.0,606.0,546.0,565.0,514.0,10,1
1491,3.96,-0.7,2.82,-3.52,0.1,1.94,624.0,608.0,548.0,567.0,518.0,10,1
1492,-0.94,-1.87,-0.34,-3.02,0.57,1.5,625.0,611.0,551.0,569.0,523.0,10,1
1493,2.92,-3.29,2.76,-0.03,-0.27,-0.4,627.0,610.0,549.0,571.0,526.0,10,1
1494,5.06,-7.34,5.97,5.86,0.15,-3.23,623.0,608.0,545.0,571.0,526.0,10,1
1495,6.61,1.3,5.48,5.84,-0.82,-3.25,624.0,607.0,551.0,568.0,515.0,10,1
1496,12.67,-1.16,21.85,-2.24,1.23,0.94,622.0,603.0,543.0,565.0,517.0,10,1
1497,2.36,1.33,2.72,-1.95,-0.08,1.19,623.0,605.0,548.0,567.0,516.0,10,1
1498,3.91,-1.27,2.65,-2.53,0.03,1.48,623.0,607.0,549.0,568.0,519.0,10,1
1499,2.46,-3.37,0.48,-2.1,-0.46,0.87,624.0,610.0,0.0,569.0,522.0,10,1
1500,4.1,1.95,8.37,-0.19,-0.11,-0.04,629.0,577.0,531.0,566.0,515.0,11,1
1501,3.66,1.91,7.42,-0.11,-0.21,-0.03,628.0,578.0,531.0,565.0,514.0,11,1
1502,3.97,2.01,6.93,-0.29,-0.15,0.06,627.0,577.0,531.0,564.0,514.0,11,1
1503,4.32,1.75,7.23,-0.48,-0.47,0.14,625.0,577.0,528.0,562.0,512.0,11,1
1504,4.82,1.57,9.18,-0.34,-0.67,0.02,624.0,576.0,526.0,560.0,511.0,11,1
1505,4.06,1.13,7.09,-0.11,-0.26,-0.08,624.0,574.0,527.0,560.0,511.0,11,1
1506,7.16,2.15,7.08,0.05,-0.93,-0.12,624.0,576.0,527.0,560.0,512.0,11,1
1507,4.01,1.05,7.0,0.54,-1.04,-0.25,624.0,576.0,528.0,560.0,512.0,11,1
1508,6.42,2.0,8.71,0.03,0.61,-0.1,624.0,576.0,529.0,561.0,513.0,11,1
1509,7.08,3.8,9.1,-0.18,-0.05,0.07,625.0,579.0,531.0,561.0,513.0,11,1
1510,7.28,2.59,11.68,-1.39,-0.54,0.44,626.0,579.0,531.0,562.0,513.0,11,1
1511,3.83,0.59,6.78,-2.42,0.6,0.92,625.0,581.0,532.0,561.0,513.0,11,1
1512,3.94,-1.3,4.24,-2.93,-0.53,1.03,625.0,580.0,531.0,562.0,514.0,11,1
1513,1.55,-4.62,-1.94,-1.41,-0.68,-0.0,624.0,581.0,535.0,563.0,516.0,11,1
1514,1.87,-1.17,2.37,1.11,-0.34,-1.12,623.0,580.0,536.0,563.0,518.0,11,1
1515,1.49,-1.47,5.83,4.25,1.28,-2.09,622.0,581.0,537.0,565.0,518.0,11,1
1516,11.61,7.75,13.62,3.92,0.43,-1.49,628.0,585.0,541.0,563.0,513.0,11,1
1517,11.26,-0.15,13.6,-0.79,-1.17,0.37,624.0,584.0,538.0,563.0,513.0,11,1
1518,4.5,0.46,6.08,-2.17,0.38,1.7,625.0,583.0,539.0,564.0,515.0,11,1
1519,0.55,-0.78,0.36,-1.84,-0.01,1.36,623.0,580.0,536.0,564.0,517.0,11,1
1520,0.29,0.72,-0.53,-0.77,-0.45,0.23,622.0,578.0,535.0,565.0,520.0,11,1
1521,1.89,-1.74,3.91,2.76,-0.09,-1.73,621.0,579.0,537.0,566.0,519.0,11,1
1522,7.49,1.53,11.48,3.86,0.89,-2.25,624.0,582.0,538.0,565.0,515.0,11,1
1523,24.04,4.49,24.57,-2.14,-2.87,1.09,625.0,582.0,539.0,565.0,516.0,11,1
1524,5.45,1.56,5.38,-2.71,0.23,1.71,625.0,585.0,542.0,565.0,515.0,11,1
1525,4.1,-0.67,2.3,-3.33,-0.14,2.11,623.0,583.0,541.0,565.0,517.0,11,1
1526,-0.44,-0.96,0.15,-2.2,-0.07,1.12,623.0,581.0,541.0,566.0,520.0,11,1
1527,2.43,-2.21,3.09,1.32,-0.12,-1.07,620.0,578.0,539.0,568.0,521.0,11,1
1528,3.24,-3.0,6.22,4.92,0.42,-2.97,622.0,579.0,539.0,567.0,520.0,11,1
1529,12.61,6.25,10.1,4.96,1.14,-2.75,628.0,592.0,547.0,567.0,517.0,11,1
1530,4.61,-2.3,16.01,-1.77,-1.07,0.84,625.0,585.0,542.0,563.0,515.0,11,1
1531,3.18,0.05,3.88,-2.68,0.8,1.73,626.0,587.0,543.0,566.0,517.0,11,1
1532,1.85,-0.66,0.63,-3.03,-0.48,1.57,625.0,583.0,543.0,566.0,519.0,11,1
1533,-0.2,-1.8,1.17,-1.21,-0.19,0.7,625.0,583.0,544.0,567.0,521.0,11,1
1534,2.5,-2.25,4.93,1.7,0.96,-0.77,624.0,580.0,541.0,567.0,522.0,11,1
1535,8.12,-2.52,13.55,6.34,-0.19,-3.38,622.0,578.0,536.0,565.0,517.0,11,1
1536,40.96,-13.79,17.09,-4.11,-0.36,3.11,626.0,587.0,544.0,563.0,514.0,11,1
1537,6.9,-1.21,5.66,-2.67,0.06,2.02,624.0,584.0,539.0,563.0,515.0,11,1
1538,1.66,-0.93,3.27,-3.15,0.13,2.13,624.0,583.0,542.0,565.0,518.0,11,1
1539,0.16,-0.86,0.69,-1.65,0.02,1.04,624.0,583.0,542.0,566.0,520.0,11,1
1540,2.62,-1.09,2.56,0.71,-0.05,-0.69,623.0,580.0,541.0,567.0,521.0,11,1
1541,3.2,-3.73,6.96,4.4,1.0,-2.87,624.0,579.0,539.0,567.0,521.0,11,1
1542,12.23,3.01,11.99,5.52,0.58,-3.53,626.0,591.0,546.0,567.0,517.0,11,1
1543,3.58,-4.29,16.3,-2.07,0.34,0.82,624.0,583.0,542.0,564.0,515.0,11,1
1544,2.71,0.96,4.16,-3.1,0.29,2.16,625.0,587.0,545.0,566.0,516.0,11,1
1545,2.72,-0.9,1.9,-3.43,-0.18,2.29,625.0,584.0,546.0,566.0,519.0,11,1
1546,1.13,-0.85,0.85,-1.0,-0.95,0.71,624.0,582.0,543.0,567.0,521.0,11,1
1547,2.21,-3.16,3.7,1.95,-0.06,-1.38,623.0,578.0,541.0,567.0,522.0,11,1
1548,2.92,-4.57,9.7,6.14,0.91,-3.64,622.0,580.0,540.0,566.0,520.0,11,1
1549,0.47,46.22,-5.16,5.4,1.09,-2.21,619.0,573.0,536.0,564.0,516.0,11,1
1550,8.24,3.08,6.98,-1.31,-0.19,0.75,623.0,582.0,541.0,564.0,515.0,11,1
1551,2.17,-0.06,3.78,-3.18,0.51,2.25,624.0,584.0,543.0,567.0,519.0,11,1
1552,0.99,-0.26,0.49,-2.56,0.41,1.42,623.0,582.0,542.0,567.0,520.0,11,1
1553,2.0,-0.55,1.76,-1.03,-0.08,0.21,623.0,581.0,542.0,567.0,523.0,11,1
1554,3.17,-2.28,5.43,2.59,-0.11,-1.81,623.0,582.0,543.0,568.0,523.0,11,1
1555,6.32,-1.8,11.53,5.6,0.31,-2.96,624.0,585.0,543.0,567.0,518.0,11,1
1556,49.03,-3.81,23.29,-3.12,-2.14,2.46,625.0,586.0,546.0,567.0,517.0,11,1
1557,5.99,-1.93,8.04,-2.89,0.05,1.52,627.0,589.0,548.0,567.0,517.0,11,1
1558,1.78,-1.18,4.42,-3.85,-0.5,2.16,627.0,590.0,550.0,567.0,520.0,11,1
1559,-0.17,-0.48,0.91,-2.61,-0.27,1.51,626.0,587.0,548.0,568.0,522.0,11,1
1560,3.22,-0.53,2.52,0.05,-0.35,-0.32,625.0,581.0,545.0,568.0,523.0,11,1
1561,2.78,-5.24,6.79,4.3,0.66,-2.41,623.0,579.0,541.0,568.0,522.0,11,1
1562,8.78,0.75,11.54,7.0,-1.67,-4.08,624.0,584.0,542.0,564.0,514.0,11,1
1563,31.15,5.89,16.72,-3.34,-0.75,1.96,625.0,582.0,539.0,562.0,514.0,11,1
1564,3.1,1.22,4.03,-2.7,0.99,1.85,625.0,586.0,544.0,564.0,516.0,11,1
1565,2.14,0.33,1.36,-2.77,-0.05,2.04,624.0,586.0,546.0,567.0,519.0,11,1
1566,0.12,-1.01,0.85,-1.83,0.0,1.25,624.0,583.0,545.0,567.0,521.0,11,1
1567,3.07,-2.46,3.96,1.44,0.13,-1.19,623.0,577.0,540.0,568.0,523.0,11,1
1568,2.47,-10.62,9.62,6.76,1.05,-3.93,621.0,578.0,540.0,567.0,522.0,11,1
1569,-6.52,57.38,1.91,2.98,1.16,-1.62,622.0,581.0,541.0,563.0,515.0,11,1
1570,10.57,1.52,7.87,-1.8,-0.9,0.88,624.0,583.0,543.0,564.0,515.0,11,1
1571,2.82,-1.03,4.5,-3.33,0.26,2.45,624.0,589.0,547.0,566.0,518.0,11,1
1572,0.73,0.02,-0.19,-3.33,1.2,2.26,623.0,584.0,546.0,568.0,522.0,11,1
1573,0.47,-0.77,0.16,-1.27,-0.4,0.37,623.0,579.0,543.0,569.0,525.0,11,1
1574,2.57,-5.35,5.45,3.34,-0.1,-2.15,622.0,576.0,542.0,568.0,525.0,11,1
1575,3.96,-1.68,10.61,6.94,0.02,-3.52,623.0,582.0,542.0,567.0,516.0,11,1
1576,36.99,-34.43,31.47,-4.59,2.14,1.97,624.0,579.0,542.0,565.0,517.0,11,1
1577,6.21,1.25,5.3,-2.24,-0.1,1.22,626.0,583.0,542.0,564.0,516.0,11,1
1578,3.4,1.27,2.23,-2.77,-0.67,1.9,626.0,584.0,543.0,566.0,518.0,11,1
1579,-0.43,0.31,0.27,-2.36,0.69,1.29,624.0,579.0,542.0,567.0,522.0,11,1
1580,3.2,-1.19,3.39,0.77,-0.95,-1.1,622.0,575.0,540.0,568.0,525.0,11,1
1581,3.98,-7.49,10.23,6.24,1.03,-3.17,623.0,576.0,540.0,569.0,522.0,11,1
1582,8.5,8.77,7.91,4.47,0.94,-2.15,627.0,590.0,549.0,568.0,515.0,11,1
1583,10.37,0.04,13.05,-1.35,-0.48,0.66,626.0,583.0,542.0,565.0,514.0,11,1
1584,2.91,0.93,3.07,-2.55,0.09,2.13,627.0,586.0,545.0,566.0,518.0,11,1
1585,1.31,-2.71,0.09,-3.48,-0.21,1.77,625.0,583.0,543.0,568.0,521.0,11,1
1586,1.16,-1.13,1.73,-1.34,-0.25,0.37,624.0,577.0,540.0,569.0,524.0,11,1
1587,1.64,-2.69,5.49,2.69,0.11,-1.95,624.0,578.0,541.0,570.0,526.0,11,1
1588,5.64,0.14,9.94,5.42,0.33,-2.89,624.0,585.0,543.0,567.0,519.0,11,1
1589,61.73,-15.03,24.51,-1.67,-6.09,2.57,626.0,587.0,544.0,566.0,515.0,11,1
1590,7.22,0.73,7.17,-2.14,-0.38,1.57,625.0,584.0,541.0,565.0,515.0,11,1
1591,2.9,-0.26,1.79,-3.04,0.47,2.19,626.0,585.0,541.0,566.0,518.0,11,1
1592,0.23,-0.0,-0.24,-2.58,-0.03,1.42,624.0,578.0,539.0,568.0,522.0,11,1
1593,2.03,-1.31,2.37,0.21,-0.2,-0.62,624.0,574.0,539.0,568.0,524.0,11,1
1594,3.03,-3.66,6.69,5.44,0.1,-3.1,623.0,575.0,535.0,568.0,523.0,11,1
1595,10.84,5.16,8.98,5.76,2.29,-2.82,625.0,591.0,544.0,565.0,515.0,11,1
1596,6.47,-4.52,17.33,-1.95,-1.22,0.84,621.0,582.0,537.0,563.0,514.0,11,1
1597,4.22,0.25,5.68,-3.41,0.61,2.0,624.0,585.0,541.0,565.0,517.0,11,1
1598,3.0,-0.22,2.16,-2.8,0.02,1.71,624.0,582.0,539.0,566.0,519.0,11,1
1599,0.51,-0.83,0.84,-1.61,0.44,0.84,625.0,581.0,541.0,567.0,523.0,11,1
1600,2.5,-2.21,3.85,1.54,0.22,-1.02,624.0,579.0,540.0,568.0,525.0,11,1
1601,3.11,-4.39,10.23,6.18,0.44,-2.93,622.0,580.0,539.0,568.0,522.0,11,1
1602,10.73,11.72,6.27,3.82,2.11,-1.45,626.0,590.0,548.0,567.0,515.0,11,1
1603,12.18,-1.01,12.53,-2.56,-0.78,1.54,623.0,583.0,536.0,564.0,515.0,11,1
1604,1.16,-0.46,4.34,-3.32,0.1,2.32,623.0,586.0,540.0,565.0,517.0,11,1
1605,-0.16,0.16,0.01,-2.64,1.1,1.65,621.0,581.0,538.0,568.0,523.0,11,1
1606,1.26,-0.87,1.26,-0.36,-0.2,-0.01,622.0,577.0,537.0,568.0,524.0,11,1
1607,1.89,-3.57,5.42,4.07,-0.53,-2.67,622.0,578.0,537.0,568.0,525.0,11,1
1608,10.95,0.92,12.42,5.88,-2.11,-3.12,623.0,586.0,540.0,566.0,515.0,11,1
1609,33.76,1.56,20.74,-2.19,-2.58,1.55,619.0,577.0,536.0,564.0,516.0,11,1
1610,4.05,0.84,4.31,-2.16,0.9,1.41,621.0,582.0,540.0,565.0,517.0,11,1
1611,2.32,0.22,1.93,-3.11,-0.32,1.95,621.0,585.0,542.0,567.0,520.0,11,1
1612,-0.32,-1.04,0.91,-2.53,0.47,1.31,623.0,581.0,542.0,568.0,524.0,11,1
1613,3.31,-2.89,4.86,0.7,0.16,-0.83,623.0,575.0,538.0,569.0,525.0,11,1
1614,2.74,-6.81,10.57,6.77,-0.39,-4.08,616.0,574.0,532.0,565.0,519.0,11,1
1615,7.95,9.25,6.19,4.16,3.39,-2.1,622.0,589.0,543.0,564.0,515.0,11,1
1616,11.78,-0.88,11.63,-1.43,-0.86,0.79,618.0,581.0,536.0,562.0,515.0,11,1
1617,2.89,0.88,4.58,-3.18,0.62,2.33,621.0,584.0,540.0,565.0,516.0,11,1
1618,3.44,-0.14,0.58,-2.96,-0.05,2.11,619.0,581.0,539.0,566.0,520.0,11,1
1619,-0.09,-1.63,1.77,-1.66,0.22,0.89,621.0,579.0,539.0,568.0,523.0,11,1
1620,2.39,-2.31,4.21,1.95,0.11,-1.53,620.0,576.0,538.0,569.0,526.0,11,1
1621,3.04,-3.66,9.37,6.1,-0.7,-3.83,622.0,580.0,539.0,567.0,522.0,11,1
1622,-16.94,64.6,17.26,-3.36,4.45,0.84,622.0,583.0,540.0,565.0,516.0,11,1
1623,7.42,-0.19,7.77,-1.9,-0.27,1.21,623.0,584.0,541.0,565.0,517.0,11,1
1624,0.9,0.01,1.84,-3.12,0.5,2.25,624.0,588.0,544.0,568.0,519.0,11,1
1625,1.48,-1.58,1.72,-3.37,0.98,1.87,623.0,583.0,544.0,568.0,523.0,11,1
1626,3.59,-1.23,2.43,-0.28,-0.56,-0.39,623.0,580.0,541.0,568.0,526.0,11,1
1627,3.72,-4.04,7.11,3.88,0.8,-2.45,623.0,578.0,540.0,568.0,525.0,11,1
1628,8.86,1.09,8.91,6.26,-1.8,-3.73,624.0,588.0,541.0,564.0,514.0,11,1
1629,24.3,0.21,15.91,-2.56,0.09,1.64,622.0,584.0,539.0,562.0,515.0,11,1
1630,3.13,0.42,4.28,-2.24,0.09,1.87,623.0,588.0,542.0,563.0,516.0,11,1
1631,1.85,0.47,2.14,-2.73,1.05,1.95,624.0,585.0,542.0,566.0,519.0,11,1
1632,0.81,-0.68,1.0,-1.74,0.19,0.94,624.0,583.0,542.0,567.0,524.0,11,1
1633,3.04,-2.11,4.58,1.33,0.28,-1.01,623.0,580.0,540.0,568.0,526.0,11,1
1634,4.44,-5.14,11.88,6.1,-0.21,-3.74,623.0,582.0,540.0,567.0,522.0,11,1
1635,-3.1,45.34,-1.23,2.24,2.1,-1.44,628.0,593.0,552.0,566.0,515.0,11,1
1636,11.39,-0.68,9.67,-2.21,-0.64,1.66,629.0,592.0,547.0,564.0,516.0,11,1
1637,2.02,-0.34,2.86,-2.67,0.34,2.23,630.0,592.0,550.0,565.0,519.0,11,1
1638,-0.01,-1.31,0.98,-2.62,0.36,1.73,629.0,586.0,547.0,566.0,522.0,11,1
1639,2.72,-1.42,2.84,-0.14,-0.34,-0.13,626.0,582.0,542.0,568.0,524.0,11,1
1640,3.99,-5.55,7.73,4.37,0.47,-2.63,624.0,575.0,535.0,569.0,524.0,11,1
1641,9.63,3.74,10.59,5.9,-3.41,-4.3,625.0,591.0,543.0,565.0,515.0,11,1
1642,6.01,2.43,19.18,-3.19,2.82,1.18,623.0,582.0,537.0,561.0,514.0,11,1
1643,1.54,0.42,4.53,-2.66,0.41,1.63,623.0,586.0,539.0,563.0,516.0,11,1
1644,1.3,-1.25,2.08,-3.03,-0.27,2.06,625.0,588.0,544.0,565.0,519.0,11,1
1645,2.61,0.32,2.8,-1.88,0.1,1.18,627.0,584.0,545.0,567.0,524.0,11,1
1646,4.61,-2.44,4.38,1.25,0.16,-1.0,627.0,579.0,542.0,568.0,526.0,11,1
1647,5.2,-11.65,10.17,6.43,-0.0,-4.6,624.0,578.0,536.0,568.0,523.0,11,1
1648,-5.38,57.88,-1.19,3.07,2.36,-2.1,624.0,582.0,539.0,563.0,513.0,11,1
1649,10.83,1.85,6.48,-1.23,-0.7,0.93,623.0,586.0,520.0,564.0,515.0,11,1
1650,8.03,2.04,4.78,-0.03,0.02,-0.01,622.0,583.0,539.0,546.0,523.0,12,1
1651,7.78,2.08,4.82,-0.02,0.06,-0.01,622.0,582.0,538.0,547.0,524.0,12,1
1652,7.8,1.93,4.94,-0.11,0.09,0.01,623.0,582.0,538.0,548.0,523.0,12,1
1653,8.12,2.24,4.64,-0.09,0.12,-0.02,622.0,583.0,538.0,548.0,523.0,12,1
1654,7.85,2.04,4.84,-0.15,0.35,0.06,622.0,583.0,537.0,548.0,522.0,12,1
1655,7.56,1.82,5.31,-0.18,0.38,0.05,625.0,583.0,537.0,549.0,521.0,12,1
1656,6.96,1.92,5.53,-0.12,0.13,-0.03,625.0,584.0,536.0,549.0,519.0,12,1
1657,6.99,2.05,5.66,-0.05,-0.36,-0.12,626.0,584.0,535.0,548.0,520.0,12,1
1658,13.26,5.75,8.02,-0.66,-0.79,-0.07,629.0,586.0,536.0,558.0,510.0,12,1
1659,8.69,3.12,7.08,-2.09,0.52,1.19,630.0,590.0,539.0,560.0,515.0,12,1
1660,7.29,-0.59,3.97,-3.11,0.15,2.13,630.0,587.0,537.0,561.0,515.0,12,1
1661,4.85,-2.63,1.43,-2.65,0.14,1.79,630.0,584.0,537.0,562.0,516.0,12,1
1662,-0.48,-3.76,1.09,-1.46,0.68,0.71,629.0,580.0,536.0,563.0,519.0,12,1
1663,3.76,-4.13,3.88,1.9,0.64,-1.51,627.0,575.0,533.0,564.0,520.0,12,1
1664,4.0,-6.16,8.07,6.05,-0.4,-4.1,624.0,579.0,535.0,563.0,517.0,12,1
1665,11.69,8.7,8.49,3.67,2.48,-2.22,627.0,595.0,546.0,564.0,517.0,12,1
1666,15.01,1.37,9.98,-1.66,-1.21,1.43,626.0,586.0,540.0,561.0,514.0,12,1
1667,3.3,-0.42,4.01,-3.08,0.64,2.31,627.0,588.0,540.0,562.0,515.0,12,1
1668,1.11,0.23,-0.58,-2.62,0.56,1.73,625.0,580.0,535.0,564.0,517.0,12,1
1669,-1.03,0.58,-0.39,-1.36,0.12,0.39,625.0,579.0,535.0,564.0,522.0,12,1
1670,3.68,-2.68,5.57,2.66,-0.8,-2.33,625.0,578.0,536.0,566.0,522.0,12,1
1671,9.08,-3.99,14.52,5.72,-0.02,-3.51,625.0,585.0,539.0,562.0,513.0,12,1
1672,27.28,6.56,26.59,-3.49,-3.55,2.02,627.0,591.0,544.0,562.0,513.0,12,1
1673,6.62,-0.32,7.81,-2.11,0.46,1.78,627.0,589.0,542.0,562.0,514.0,12,1
1674,1.61,-0.54,2.42,-2.54,0.35,2.3,627.0,590.0,545.0,565.0,517.0,12,1
1675,2.71,-4.62,-0.52,-2.94,0.62,1.52,626.0,584.0,541.0,566.0,521.0,12,1
