Index,AccelX,AccelY,AccelZ,GyroX,GyroY,GyroZ,Finger1,Finger2,Finger3,Finger4,Finger5,Iteration,Gesture
0,9.35,-3.07,1.13,-0.17,0.0,0.04,530.0,560.0,511.0,555.0,531.0,1,2
1,8.97,-3.0,1.28,-0.54,0.01,0.18,530.0,560.0,511.0,553.0,527.0,1,2
2,9.1,-3.64,0.99,-0.46,0.09,0.17,531.0,562.0,511.0,550.0,524.0,1,2
3,9.36,-3.56,1.62,-0.37,0.11,0.08,531.0,565.0,512.0,551.0,524.0,1,2
4,8.96,-3.54,2.12,-0.21,0.66,0.23,532.0,564.0,513.0,551.0,524.0,1,2
5,7.89,-3.28,3.07,-0.12,0.22,-0.19,531.0,565.0,512.0,549.0,525.0,1,2
6,10.53,-2.45,1.52,0.01,0.48,0.03,529.0,564.0,511.0,549.0,526.0,1,2
7,8.87,-3.74,1.88,-0.03,0.1,-0.16,528.0,563.0,508.0,549.0,526.0,1,2
8,8.69,-4.96,1.11,-0.01,0.11,-0.2,529.0,561.0,507.0,547.0,527.0,1,2
9,6.26,-5.79,0.0,-0.19,-0.25,-0.27,531.0,560.0,507.0,548.0,528.0,1,2
10,7.14,-5.91,1.08,0.04,0.22,0.05,531.0,560.0,506.0,547.0,528.0,1,2
11,7.79,-6.76,0.43,-0.34,-0.22,-0.19,534.0,559.0,506.0,548.0,529.0,1,2
12,7.65,-5.3,0.06,0.09,0.02,0.05,534.0,559.0,506.0,548.0,530.0,1,2
13,11.62,-2.41,3.82,0.13,-0.12,0.06,535.0,560.0,507.0,549.0,531.0,1,2
14,10.07,2.83,6.32,0.15,-0.07,0.06,534.0,559.0,508.0,548.0,531.0,1,2
15,13.09,-0.45,3.31,-0.16,-0.05,-0.22,525.0,561.0,509.0,550.0,532.0,1,2
16,10.97,-0.11,2.56,0.01,0.41,0.07,525.0,561.0,509.0,550.0,533.0,1,2
17,9.2,-3.38,2.75,-0.22,-0.11,-0.33,524.0,561.0,509.0,551.0,534.0,1,2
18,8.2,-6.16,0.95,-0.35,-0.3,-0.48,525.0,561.0,509.0,551.0,534.0,1,2
19,7.01,-9.51,-1.18,-0.06,0.1,-0.11,525.0,562.0,509.0,551.0,534.0,1,2
20,6.35,-7.26,0.53,0.17,0.05,0.15,523.0,562.0,510.0,551.0,533.0,1,2
21,9.07,-5.55,1.0,-0.24,-0.45,-0.06,524.0,562.0,509.0,552.0,534.0,1,2
22,8.77,-2.9,0.61,0.09,0.08,0.27,525.0,562.0,510.0,551.0,535.0,1,2
23,10.56,-0.41,3.99,0.17,0.3,0.24,524.0,562.0,511.0,551.0,534.0,1,2
24,10.5,2.48,4.31,0.02,-0.0,-0.01,524.0,562.0,511.0,551.0,535.0,1,2
25,9.98,0.39,3.11,0.05,0.13,-0.01,525.0,562.0,511.0,552.0,536.0,1,2
26,9.19,-1.9,2.82,-0.16,0.04,-0.1,526.0,562.0,511.0,552.0,536.0,1,2
27,9.5,-4.65,1.69,-0.26,-0.09,-0.33,525.0,563.0,511.0,552.0,536.0,1,2
28,8.17,-7.47,0.02,-0.19,-0.01,-0.23,527.0,563.0,511.0,553.0,536.0,1,2
29,10.03,-6.43,1.61,-0.09,-0.06,0.04,525.0,563.0,511.0,552.0,536.0,1,2
30,6.51,-5.46,0.62,-0.03,-0.05,0.07,525.0,563.0,512.0,553.0,536.0,1,2
31,10.76,-4.32,1.7,-0.01,-0.1,0.17,525.0,563.0,511.0,553.0,536.0,1,2
32,9.02,-1.59,3.2,0.08,-0.03,0.12,524.0,563.0,512.0,553.0,537.0,1,2
33,11.86,2.32,4.47,0.14,0.07,0.05,526.0,563.0,513.0,553.0,537.0,1,2
34,10.61,-0.17,3.9,-0.2,-0.12,-0.07,526.0,563.0,512.0,553.0,537.0,1,2
35,9.6,-0.23,2.28,-0.12,-0.02,-0.15,526.0,563.0,513.0,554.0,537.0,1,2
36,9.58,-3.34,2.33,-0.07,0.17,-0.14,527.0,563.0,512.0,553.0,537.0,1,2
37,8.1,-6.3,0.64,-0.22,-0.14,-0.35,527.0,563.0,513.0,553.0,538.0,1,2
38,7.1,-8.79,-0.51,-0.14,-0.07,-0.07,527.0,564.0,513.0,554.0,538.0,1,2
39,6.37,-6.13,0.71,0.16,0.09,0.17,526.0,563.0,513.0,553.0,537.0,1,2
40,9.08,-5.77,1.68,0.0,-0.21,0.14,527.0,563.0,513.0,553.0,537.0,1,2
41,9.66,-2.53,2.34,0.19,0.16,0.27,527.0,564.0,513.0,554.0,538.0,1,2
42,10.78,2.57,3.82,0.22,0.24,0.17,527.0,564.0,513.0,554.0,538.0,1,2
43,8.26,0.26,3.65,0.06,0.12,0.05,527.0,563.0,514.0,554.0,539.0,1,2
44,10.81,-0.43,3.09,-0.13,-0.09,-0.14,529.0,564.0,513.0,555.0,539.0,1,2
45,9.54,-2.02,2.47,-0.07,0.06,-0.12,526.0,564.0,513.0,555.0,539.0,1,2
46,7.97,-4.49,2.08,-0.19,-0.16,-0.33,527.0,564.0,514.0,555.0,539.0,1,2
47,7.91,-7.86,0.13,-0.14,-0.13,-0.26,527.0,563.0,514.0,555.0,539.0,1,2
48,9.35,-6.12,1.22,0.07,0.1,0.03,526.0,564.0,514.0,554.0,538.0,1,2
49,6.2,-4.43,0.67,0.08,-0.12,0.1,524.0,564.0,515.0,555.0,538.0,1,2
50,10.78,-3.16,1.12,0.0,0.16,0.37,527.0,564.0,515.0,555.0,539.0,1,2
51,9.37,-1.07,3.7,0.07,-0.05,0.18,526.0,564.0,515.0,555.0,539.0,1,2
52,10.83,2.39,4.7,-0.06,-0.07,-0.01,527.0,564.0,515.0,555.0,538.0,1,2
53,10.09,0.73,3.19,-0.15,0.02,-0.04,527.0,565.0,516.0,556.0,541.0,1,2
54,9.38,-1.53,2.36,-0.23,-0.11,-0.18,528.0,565.0,517.0,556.0,540.0,1,2
55,9.16,-3.39,1.54,-0.21,-0.07,-0.2,528.0,565.0,516.0,556.0,540.0,1,2
56,8.6,-7.0,0.86,-0.21,-0.15,-0.27,529.0,565.0,516.0,557.0,540.0,1,2
57,10.58,-7.93,1.41,-0.17,0.02,0.07,527.0,565.0,515.0,556.0,540.0,1,2
58,5.69,-5.11,-0.73,0.38,-0.03,0.17,527.0,565.0,516.0,557.0,540.0,1,2
59,9.26,-2.91,1.78,-0.1,0.14,0.44,528.0,565.0,516.0,556.0,540.0,1,2
60,11.39,-0.7,4.06,0.05,0.04,0.25,529.0,565.0,516.0,556.0,541.0,1,2
61,7.87,-0.34,3.98,0.13,-0.02,-0.18,529.0,565.0,516.0,557.0,541.0,1,2
62,11.61,-0.42,3.27,-0.17,-0.19,-0.15,529.0,566.0,517.0,557.0,542.0,1,2
63,9.56,-2.11,2.05,-0.11,-0.07,-0.23,530.0,565.0,517.0,557.0,541.0,1,2
64,8.26,-5.38,1.21,-0.21,-0.18,-0.34,530.0,565.0,516.0,557.0,542.0,1,2
65,7.79,-8.21,-0.42,-0.19,-0.21,-0.18,530.0,566.0,517.0,558.0,541.0,1,2
66,7.18,-6.64,0.61,0.31,0.16,0.16,530.0,565.0,517.0,557.0,541.0,1,2
67,7.41,-4.53,1.58,0.07,-0.14,0.18,529.0,565.0,518.0,557.0,541.0,1,2
68,10.72,-2.63,1.78,-0.07,-0.25,0.06,529.0,565.0,517.0,558.0,541.0,1,2
69,10.28,1.57,2.99,0.07,0.08,0.17,530.0,565.0,517.0,558.0,542.0,1,2
70,9.04,1.02,3.82,0.05,0.02,0.06,529.0,566.0,518.0,557.0,542.0,1,2
71,10.35,-0.93,2.87,-0.23,-0.25,-0.19,530.0,566.0,518.0,558.0,542.0,1,2
72,9.06,-2.59,1.19,-0.21,-0.06,-0.2,530.0,566.0,518.0,559.0,542.0,1,2
73,8.2,-6.01,0.63,-0.19,0.09,-0.14,530.0,566.0,518.0,558.0,543.0,1,2
74,7.41,-8.82,0.28,-0.02,0.12,0.12,530.0,567.0,518.0,558.0,542.0,1,2
75,6.46,-5.5,0.39,-0.01,-0.07,0.16,529.0,566.0,518.0,558.0,541.0,1,2
76,10.31,-4.0,2.14,-0.03,0.02,0.37,530.0,567.0,519.0,559.0,541.0,1,2
77,9.97,-1.1,3.14,-0.02,-0.31,0.02,530.0,566.0,519.0,558.0,541.0,1,2
78,10.79,2.43,3.7,-0.11,-0.21,-0.06,529.0,567.0,519.0,558.0,542.0,1,2
79,9.46,0.41,2.27,-0.05,0.21,0.02,531.0,568.0,519.0,559.0,542.0,1,2
80,8.83,-1.98,1.7,-0.18,-0.16,-0.21,531.0,568.0,519.0,559.0,543.0,1,2
81,9.16,-5.35,0.6,-0.05,0.32,0.1,531.0,568.0,520.0,559.0,543.0,1,2
82,7.4,-9.29,0.41,-0.07,0.01,0.02,530.0,568.0,519.0,559.0,542.0,1,2
83,7.12,-6.57,0.65,0.11,0.06,0.19,531.0,568.0,520.0,559.0,541.0,1,2
84,8.83,-3.78,1.67,0.24,-0.41,-0.16,529.0,567.0,520.0,558.0,540.0,1,2
85,11.12,0.95,3.37,-0.05,-0.17,0.26,532.0,568.0,520.0,559.0,541.0,1,2
86,7.88,0.59,3.01,0.52,0.11,-0.25,531.0,569.0,520.0,560.0,542.0,1,2
87,10.26,-1.43,2.81,0.03,-0.06,-0.17,531.0,568.0,521.0,559.0,543.0,1,2
88,10.22,-3.98,0.98,0.05,-0.24,-0.39,531.0,568.0,521.0,560.0,543.0,1,2
89,8.34,-5.99,-0.14,0.06,-0.16,-0.3,531.0,568.0,522.0,560.0,544.0,1,2
90,8.36,-4.87,-0.35,0.03,-0.03,0.09,529.0,568.0,521.0,560.0,543.0,1,2
91,6.39,-3.44,0.27,0.05,0.33,0.22,530.0,569.0,522.0,560.0,542.0,1,2
92,8.81,-2.66,1.39,-0.2,0.04,0.26,531.0,569.0,522.0,560.0,543.0,1,2
93,10.35,-0.97,3.04,-0.22,0.18,0.34,533.0,568.0,523.0,560.0,544.0,1,2
94,10.2,-2.75,4.6,0.16,0.06,-0.04,532.0,569.0,522.0,561.0,544.0,1,2
95,9.79,-1.03,2.57,-0.15,-0.1,-0.13,534.0,569.0,523.0,561.0,544.0,1,2
96,10.03,-2.85,1.36,-0.13,0.08,-0.07,532.0,570.0,523.0,561.0,544.0,1,2
97,8.76,-6.66,0.5,-0.12,-0.07,-0.12,533.0,569.0,523.0,561.0,544.0,1,2
98,9.37,-7.69,0.13,-0.31,0.04,0.24,532.0,570.0,522.0,559.0,541.0,1,2
99,6.85,-5.98,0.76,0.09,0.09,0.25,531.0,569.0,524.0,559.0,542.0,1,2
100,9.31,-3.49,2.04,-0.06,-0.16,0.03,533.0,569.0,524.0,561.0,542.0,1,2
101,9.27,2.67,3.61,0.11,-0.22,-0.08,532.0,569.0,524.0,560.0,543.0,1,2
102,13.23,1.9,4.01,0.26,-0.06,-0.02,533.0,569.0,524.0,561.0,544.0,1,2
103,9.77,-0.55,3.11,0.14,0.1,-0.17,533.0,570.0,524.0,561.0,545.0,1,2
104,9.47,-4.57,0.25,-0.16,-0.11,-0.45,533.0,570.0,524.0,562.0,545.0,1,2
105,7.33,-9.03,-1.21,-0.01,0.04,-0.21,532.0,569.0,524.0,561.0,544.0,1,2
106,5.98,-7.09,-0.33,0.28,0.13,0.31,530.0,568.0,524.0,560.0,542.0,1,2
107,8.46,-4.87,0.48,0.08,-0.08,0.24,531.0,568.0,524.0,560.0,542.0,1,2
108,10.1,-1.42,2.51,-0.01,0.2,0.42,531.0,569.0,524.0,561.0,543.0,1,2
109,12.63,2.27,5.09,-0.01,-0.31,0.08,532.0,569.0,524.0,561.0,544.0,1,2
110,9.9,1.48,4.11,0.0,0.04,-0.23,533.0,570.0,525.0,562.0,544.0,1,2
111,11.0,-1.19,2.62,-0.14,-0.18,-0.28,533.0,569.0,525.0,562.0,544.0,1,2
112,8.47,-4.58,0.5,-0.25,-0.09,-0.37,532.0,568.0,526.0,562.0,544.0,1,2
113,9.41,-6.16,-0.24,-0.01,0.28,-0.06,532.0,570.0,526.0,562.0,544.0,1,2
114,7.46,-7.49,-0.23,0.22,0.3,0.37,531.0,570.0,526.0,561.0,541.0,1,2
115,6.69,-6.1,0.93,0.09,-0.05,0.28,533.0,570.0,526.0,561.0,538.0,1,2
116,8.36,-3.49,1.04,0.04,-0.13,0.39,533.0,571.0,526.0,561.0,539.0,1,2
117,10.45,-0.44,3.98,0.11,0.11,0.48,534.0,571.0,527.0,561.0,539.0,1,2
118,9.59,1.34,4.67,0.05,-0.45,-0.12,533.0,571.0,527.0,561.0,539.0,1,2
119,11.21,0.16,2.87,-0.28,-0.27,-0.25,534.0,572.0,527.0,560.0,538.0,1,2
120,8.23,-2.62,1.69,-0.01,-0.11,-0.25,534.0,571.0,527.0,560.0,538.0,1,2
121,9.71,-5.16,-0.37,-0.18,-0.5,-0.29,534.0,571.0,527.0,560.0,538.0,1,2
122,7.91,-8.68,-0.04,0.15,0.06,0.1,534.0,572.0,527.0,560.0,537.0,1,2
123,6.76,-6.8,0.39,0.04,-0.48,0.08,534.0,571.0,527.0,559.0,537.0,1,2
124,9.89,-5.29,0.73,0.3,-0.07,0.35,534.0,570.0,527.0,560.0,538.0,1,2
125,10.43,-2.27,2.67,0.3,-0.66,0.02,534.0,570.0,528.0,560.0,538.0,1,2
126,11.6,3.24,3.88,0.28,-0.19,0.04,534.0,570.0,528.0,560.0,538.0,1,2
127,11.05,0.83,4.13,-0.06,-0.14,-0.27,534.0,570.0,528.0,561.0,539.0,1,2
128,10.96,-1.61,1.43,-0.04,-0.04,-0.4,532.0,569.0,528.0,561.0,540.0,1,2
129,8.39,-4.73,-0.79,-0.21,0.08,-0.47,530.0,568.0,526.0,560.0,539.0,1,2
130,8.05,-8.33,-1.68,-0.0,0.15,-0.12,530.0,567.0,527.0,559.0,538.0,1,2
131,6.67,-7.42,-0.91,0.4,0.31,0.49,529.0,567.0,525.0,558.0,536.0,1,2
132,9.23,-5.13,-0.87,0.09,0.15,0.47,530.0,567.0,527.0,558.0,537.0,1,2
133,9.64,-1.52,3.52,0.18,0.27,0.56,531.0,568.0,527.0,560.0,538.0,1,2
134,11.63,4.3,5.14,-0.04,-0.18,-0.04,531.0,568.0,528.0,560.0,539.0,1,2
135,10.22,2.69,3.82,0.03,0.06,-0.16,532.0,569.0,528.0,560.0,540.0,1,2
136,11.02,-0.5,2.46,-0.28,-0.11,-0.48,531.0,568.0,528.0,561.0,541.0,1,2
137,8.55,-4.39,0.11,-0.44,-0.05,-0.59,531.0,568.0,528.0,561.0,540.0,1,2
138,7.42,-10.25,-1.47,-0.25,-0.06,-0.37,531.0,567.0,528.0,560.0,540.0,1,2
139,5.54,-8.04,0.27,0.45,0.59,0.57,530.0,567.0,527.0,560.0,538.0,1,2
140,8.0,-5.23,0.34,0.14,0.23,0.47,531.0,568.0,528.0,560.0,538.0,1,2
141,10.83,-2.87,2.74,0.15,-0.23,0.44,532.0,568.0,529.0,560.0,540.0,1,2
142,12.18,2.59,4.72,-0.04,-0.03,0.22,532.0,570.0,529.0,561.0,540.0,1,2
143,10.11,3.51,3.82,-0.1,-0.09,-0.09,533.0,570.0,530.0,561.0,540.0,1,2
144,10.99,0.38,2.23,-0.3,-0.15,-0.3,534.0,570.0,530.0,561.0,540.0,1,2
145,9.95,-3.55,0.58,-0.57,-0.15,-0.42,535.0,570.0,530.0,561.0,539.0,1,2
146,7.63,-12.57,-0.1,-0.45,0.11,-0.13,534.0,570.0,530.0,559.0,537.0,1,2
147,5.85,-8.99,-0.58,0.19,-0.08,0.2,535.0,570.0,530.0,559.0,535.0,1,2
148,6.95,-5.84,-0.97,0.43,-0.1,0.52,533.0,571.0,530.0,560.0,536.0,1,2
149,10.99,-3.11,2.58,0.34,0.02,0.68,534.0,570.0,530.0,560.0,537.0,1,2
150,9.56,-3.18,0.16,-0.06,-0.21,-0.07,556.0,563.0,536.0,560.0,536.0,2,2
151,9.55,-3.08,-0.07,-0.08,-0.17,-0.06,556.0,562.0,536.0,560.0,536.0,2,2
152,9.48,-3.15,0.05,0.05,-0.11,0.01,555.0,562.0,535.0,559.0,536.0,2,2
153,9.71,-3.27,0.5,-0.03,-0.18,-0.04,555.0,562.0,533.0,559.0,536.0,2,2
154,9.92,-3.09,-0.46,-0.0,-0.18,-0.06,554.0,561.0,532.0,558.0,536.0,2,2
155,10.48,-3.11,-0.68,0.1,0.08,0.11,555.0,561.0,533.0,558.0,536.0,2,2
156,9.6,-2.63,-0.19,0.17,0.27,0.15,554.0,561.0,533.0,558.0,536.0,2,2
157,10.94,-1.34,1.65,0.06,0.19,0.08,554.0,565.0,535.0,560.0,536.0,2,2
158,10.96,0.11,0.69,0.1,0.37,0.07,554.0,563.0,536.0,559.0,537.0,2,2
159,9.37,-3.08,0.41,-0.11,0.32,-0.14,554.0,564.0,537.0,559.0,537.0,2,2
160,9.09,-6.8,-0.89,-0.14,0.22,-0.16,554.0,563.0,537.0,559.0,536.0,2,2
161,5.93,-8.14,-1.07,0.41,0.77,0.34,553.0,563.0,536.0,560.0,535.0,2,2
162,6.83,-4.5,-0.13,0.04,0.01,0.3,553.0,564.0,536.0,560.0,536.0,2,2
163,11.82,-2.85,2.06,-0.09,-0.05,0.21,553.0,564.0,537.0,560.0,536.0,2,2
164,11.15,2.74,2.85,0.01,0.32,0.13,553.0,564.0,538.0,559.0,537.0,2,2
165,11.85,1.54,4.17,-0.15,-0.1,-0.15,555.0,565.0,538.0,560.0,537.0,2,2
166,10.44,-0.47,2.21,-0.41,-0.17,-0.43,554.0,565.0,538.0,560.0,537.0,2,2
167,9.46,-4.34,-1.09,-0.73,-0.28,-0.58,552.0,565.0,538.0,560.0,537.0,2,2
168,7.91,-9.34,-2.34,-0.42,0.04,-0.24,550.0,565.0,537.0,559.0,537.0,2,2
169,6.64,-9.02,-0.11,0.36,0.37,0.35,542.0,565.0,538.0,558.0,537.0,2,2
170,7.41,-6.47,-0.18,0.21,0.02,0.34,539.0,564.0,538.0,559.0,537.0,2,2
171,11.04,-3.64,2.08,0.06,-0.06,0.34,538.0,565.0,538.0,559.0,538.0,2,2
172,10.84,4.58,2.53,0.04,-0.17,0.11,540.0,566.0,540.0,559.0,538.0,2,2
173,9.72,2.77,4.51,0.1,0.01,-0.01,542.0,569.0,541.0,560.0,541.0,2,2
174,8.51,-0.72,3.34,-0.15,-0.28,-0.23,542.0,570.0,543.0,561.0,541.0,2,2
175,10.45,-5.52,-1.57,-0.62,-0.25,-0.35,545.0,570.0,542.0,562.0,540.0,2,2
176,9.77,-8.31,-1.29,-0.24,0.51,0.06,546.0,570.0,542.0,562.0,538.0,2,2
177,7.26,-7.43,-0.9,-0.07,0.16,0.17,545.0,571.0,543.0,561.0,538.0,2,2
178,6.93,-6.28,0.01,0.2,-0.25,0.14,546.0,571.0,543.0,561.0,540.0,2,2
179,10.12,-3.28,0.88,0.16,-0.07,0.31,546.0,571.0,544.0,563.0,539.0,2,2
180,12.62,2.08,4.58,0.16,0.21,0.24,547.0,571.0,544.0,562.0,540.0,2,2
181,10.03,2.65,3.99,-0.1,-0.1,-0.24,547.0,571.0,545.0,563.0,541.0,2,2
182,11.27,-1.14,2.36,-0.24,-0.06,-0.38,547.0,572.0,545.0,563.0,542.0,2,2
183,9.53,-4.54,-0.72,-0.51,0.02,-0.48,546.0,571.0,544.0,564.0,541.0,2,2
184,7.71,-7.96,-2.38,-0.29,-0.01,-0.32,546.0,571.0,544.0,563.0,541.0,2,2
185,6.16,-8.25,-0.62,0.37,0.31,0.38,546.0,570.0,543.0,562.0,539.0,2,2
186,7.51,-7.31,0.11,0.25,-0.13,0.34,547.0,569.0,544.0,562.0,541.0,2,2
187,11.3,-1.93,2.13,0.19,0.21,0.56,548.0,571.0,545.0,564.0,543.0,2,2
188,12.09,3.09,4.79,0.0,0.01,0.31,547.0,571.0,546.0,564.0,542.0,2,2
189,10.88,2.51,3.6,-0.1,0.04,-0.17,547.0,572.0,546.0,563.0,542.0,2,2
190,10.36,-1.18,1.4,-0.42,-0.05,-0.42,546.0,571.0,545.0,563.0,542.0,2,2
191,8.6,-5.0,-0.19,-0.47,0.16,-0.47,546.0,571.0,545.0,562.0,540.0,2,2
192,8.69,-9.29,-1.57,-0.31,-0.21,-0.28,545.0,570.0,544.0,562.0,539.0,2,2
193,6.18,-8.16,-0.57,0.36,0.31,0.44,546.0,570.0,544.0,561.0,538.0,2,2
194,7.77,-4.72,-0.2,0.42,0.09,0.56,547.0,570.0,545.0,561.0,539.0,2,2
195,10.87,-2.14,2.48,0.11,-0.52,0.3,547.0,571.0,546.0,563.0,540.0,2,2
196,13.46,1.4,3.85,-0.1,-0.18,0.44,547.0,571.0,546.0,563.0,541.0,2,2
197,9.8,2.14,2.53,-0.11,-0.08,-0.07,547.0,570.0,546.0,563.0,540.0,2,2
198,11.85,-2.03,2.5,-0.4,-0.1,-0.44,546.0,571.0,544.0,562.0,540.0,2,2
199,9.13,-4.68,-0.9,-0.48,0.12,-0.45,544.0,570.0,543.0,560.0,538.0,2,2
200,7.79,-8.96,-1.34,-0.24,0.13,-0.26,544.0,569.0,542.0,560.0,537.0,2,2
201,5.37,-9.2,-0.66,0.42,0.21,0.33,543.0,567.0,542.0,559.0,537.0,2,2
202,6.46,-5.92,-1.17,0.38,-0.14,0.57,543.0,568.0,543.0,560.0,538.0,2,2
203,13.34,-1.35,3.01,0.17,-0.24,0.5,544.0,568.0,544.0,560.0,539.0,2,2
204,10.88,4.58,4.65,0.18,-0.2,0.0,545.0,569.0,545.0,560.0,539.0,2,2
205,11.37,1.53,3.63,-0.05,-0.23,-0.4,544.0,569.0,544.0,561.0,540.0,2,2
206,10.39,-1.81,0.88,-0.17,-0.24,-0.55,545.0,569.0,545.0,561.0,539.0,2,2
207,8.05,-5.07,-1.16,-0.39,0.01,-0.46,544.0,570.0,544.0,561.0,538.0,2,2
208,8.54,-9.15,-2.09,-0.3,-0.14,-0.29,545.0,568.0,544.0,560.0,538.0,2,2
209,5.08,-7.93,-0.69,0.32,0.47,0.47,545.0,567.0,544.0,560.0,537.0,2,2
210,7.83,-5.3,0.27,0.2,-0.38,0.46,544.0,569.0,544.0,561.0,538.0,2,2
211,10.46,-1.48,2.21,0.32,0.24,0.63,545.0,568.0,546.0,561.0,538.0,2,2
212,13.31,1.07,4.0,-0.02,0.17,0.64,545.0,570.0,545.0,562.0,539.0,2,2
213,11.32,2.07,3.54,-0.11,0.15,-0.2,545.0,569.0,546.0,562.0,539.0,2,2
214,10.49,-2.09,1.42,-0.34,0.18,-0.33,544.0,569.0,544.0,562.0,538.0,2,2
215,7.24,-6.45,-0.74,-0.56,0.2,-0.39,543.0,567.0,543.0,558.0,536.0,2,2
216,7.64,-10.65,-1.32,-0.21,0.23,-0.04,541.0,566.0,540.0,557.0,535.0,2,2
217,5.47,-6.21,-1.14,0.3,0.22,0.47,543.0,566.0,541.0,557.0,536.0,2,2
218,8.25,-5.13,1.2,0.59,0.05,0.52,544.0,566.0,541.0,558.0,536.0,2,2
219,11.67,-0.21,1.36,0.3,0.49,0.71,544.0,566.0,543.0,558.0,538.0,2,2
220,10.38,3.42,4.77,-0.1,0.24,0.21,545.0,567.0,543.0,559.0,538.0,2,2
221,9.83,1.67,3.03,-0.23,-0.03,-0.1,545.0,568.0,543.0,559.0,538.0,2,2
222,11.11,-3.54,2.91,-0.54,-0.06,-0.33,545.0,567.0,543.0,559.0,537.0,2,2
223,7.76,-6.56,0.17,-0.66,-0.09,-0.57,545.0,567.0,542.0,559.0,537.0,2,2
224,7.33,-10.92,-0.29,-0.14,0.07,-0.26,545.0,566.0,542.0,558.0,537.0,2,2
225,5.71,-7.89,-0.73,0.43,0.14,0.46,544.0,565.0,542.0,558.0,537.0,2,2
226,10.64,-5.93,1.59,0.3,-0.34,0.45,543.0,566.0,542.0,559.0,537.0,2,2
227,9.02,-0.41,3.07,0.39,-0.03,0.45,544.0,566.0,542.0,559.0,537.0,2,2
228,14.41,4.49,5.87,0.16,0.38,-0.46,544.0,567.0,543.0,559.0,538.0,2,2
229,11.31,1.27,4.31,-0.13,-0.18,-0.4,543.0,566.0,543.0,559.0,538.0,2,2
230,10.34,-2.56,1.28,-0.47,-0.13,-0.64,543.0,566.0,543.0,560.0,538.0,2,2
231,7.65,-8.06,-0.49,-0.7,-0.42,-0.75,543.0,565.0,542.0,559.0,538.0,2,2
232,6.86,-10.53,-1.03,0.05,0.25,-0.04,543.0,565.0,542.0,560.0,538.0,2,2
233,4.95,-7.3,-0.7,0.35,-0.12,0.34,543.0,565.0,542.0,559.0,538.0,2,2
234,9.33,-5.31,0.49,0.4,0.22,0.74,543.0,565.0,542.0,560.0,538.0,2,2
235,12.03,-0.4,4.49,0.11,-0.4,0.33,544.0,566.0,544.0,560.0,539.0,2,2
236,11.01,6.57,3.83,0.09,-0.1,0.0,544.0,567.0,543.0,560.0,539.0,2,2
237,11.74,0.18,3.63,-0.14,-0.08,-0.32,543.0,566.0,543.0,560.0,538.0,2,2
238,9.21,-2.19,1.09,-0.31,-0.08,-0.52,545.0,566.0,543.0,560.0,539.0,2,2
239,8.62,-5.89,-0.36,-0.6,-0.34,-0.63,544.0,566.0,543.0,560.0,538.0,2,2
240,7.61,-10.43,-1.42,-0.23,-0.13,-0.25,544.0,565.0,542.0,560.0,538.0,2,2
241,3.56,-7.99,-1.13,0.45,0.26,0.5,544.0,567.0,543.0,560.0,538.0,2,2
242,9.35,-5.15,-0.56,0.28,0.02,0.73,544.0,566.0,543.0,560.0,539.0,2,2
243,13.37,-0.35,5.08,0.17,-0.28,0.42,545.0,567.0,543.0,560.0,539.0,2,2
244,11.77,4.98,3.86,0.13,-0.1,0.11,545.0,567.0,544.0,560.0,539.0,2,2
245,11.36,0.05,4.09,-0.04,0.02,-0.33,545.0,567.0,544.0,561.0,540.0,2,2
246,10.13,-2.46,0.72,-0.29,-0.15,-0.56,545.0,569.0,544.0,561.0,539.0,2,2
247,8.09,-6.01,-0.8,-0.52,0.11,-0.51,545.0,567.0,544.0,561.0,539.0,2,2
248,7.1,-10.32,-0.9,-0.23,0.15,-0.32,545.0,566.0,543.0,561.0,539.0,2,2
249,4.55,-8.06,-0.3,0.47,0.15,0.52,545.0,567.0,544.0,560.0,538.0,2,2
250,9.25,-4.89,-0.89,0.37,-0.26,0.67,545.0,567.0,543.0,561.0,540.0,2,2
251,10.39,-0.48,3.69,0.22,-0.04,0.57,545.0,568.0,543.0,561.0,540.0,2,2
252,11.77,6.49,3.52,0.26,0.02,0.02,545.0,568.0,545.0,561.0,540.0,2,2
253,12.14,1.09,4.06,-0.09,-0.15,-0.32,545.0,568.0,545.0,562.0,541.0,2,2
254,10.4,-2.13,0.67,-0.52,-0.35,-0.66,545.0,567.0,545.0,561.0,540.0,2,2
255,8.6,-5.97,-0.65,-0.65,-0.11,-0.65,544.0,567.0,544.0,561.0,540.0,2,2
256,7.58,-9.41,-0.88,-0.37,0.1,-0.31,544.0,567.0,544.0,561.0,540.0,2,2
257,5.79,-8.7,-0.47,0.5,0.41,0.45,544.0,566.0,544.0,561.0,540.0,2,2
258,8.22,-5.65,-0.64,0.33,-0.2,0.59,544.0,566.0,544.0,561.0,541.0,2,2
259,9.75,-1.62,2.38,0.39,0.47,0.75,545.0,567.0,544.0,561.0,540.0,2,2
260,15.38,1.93,4.42,-0.16,-0.36,0.27,545.0,568.0,545.0,562.0,541.0,2,2
261,10.36,2.75,3.48,-0.05,-0.05,-0.19,544.0,568.0,545.0,562.0,541.0,2,2
262,10.9,-1.3,2.02,-0.32,-0.18,-0.52,545.0,567.0,545.0,562.0,541.0,2,2
263,8.98,-4.09,-0.6,-0.61,0.07,-0.61,545.0,567.0,544.0,562.0,541.0,2,2
264,7.83,-9.19,-1.29,-0.59,-0.15,-0.52,545.0,566.0,544.0,563.0,540.0,2,2
265,7.33,-8.99,-1.13,0.46,0.44,0.39,544.0,565.0,543.0,563.0,540.0,2,2
266,6.65,-6.52,-1.79,0.33,-0.25,0.37,544.0,567.0,544.0,562.0,541.0,2,2
267,8.46,-3.48,1.41,0.55,0.59,0.9,544.0,567.0,544.0,562.0,541.0,2,2
268,15.12,3.5,4.04,-0.05,-0.41,0.18,545.0,566.0,544.0,562.0,541.0,2,2
269,11.05,4.37,4.2,0.2,0.33,-0.05,544.0,567.0,544.0,562.0,541.0,2,2
270,12.22,-0.06,2.83,-0.21,-0.07,-0.46,544.0,567.0,544.0,563.0,542.0,2,2
271,8.43,-2.96,0.02,-0.51,0.02,-0.6,544.0,567.0,544.0,562.0,541.0,2,2
272,7.05,-14.64,-2.83,-0.74,0.19,-0.82,544.0,566.0,544.0,562.0,540.0,2,2
273,9.46,-10.91,-0.82,0.35,0.39,0.28,544.0,566.0,543.0,561.0,541.0,2,2
274,5.26,-6.89,-0.45,0.25,-0.3,0.55,544.0,566.0,543.0,562.0,540.0,2,2
275,11.52,-4.67,1.37,0.39,-0.01,0.8,544.0,566.0,544.0,562.0,541.0,2,2
276,12.08,2.11,4.78,0.24,-0.01,0.37,543.0,567.0,544.0,562.0,541.0,2,2
277,9.75,3.67,4.0,0.06,0.09,-0.22,545.0,568.0,545.0,562.0,542.0,2,2
278,12.22,0.63,3.18,-0.13,-0.03,-0.37,545.0,568.0,544.0,563.0,542.0,2,2
279,9.31,-2.1,0.56,-0.36,0.06,-0.48,546.0,567.0,545.0,562.0,542.0,2,2
280,7.97,-4.22,-1.24,-0.58,-0.1,-0.74,546.0,566.0,544.0,562.0,541.0,2,2
281,6.94,-12.35,-1.4,-0.11,0.14,-0.48,545.0,567.0,544.0,562.0,541.0,2,2
282,3.11,-7.24,-1.01,0.54,0.26,0.48,544.0,567.0,544.0,562.0,540.0,2,2
283,9.28,-4.11,-1.47,0.15,-0.4,0.72,545.0,567.0,545.0,562.0,541.0,2,2
284,12.47,1.08,5.2,0.12,-0.28,0.43,546.0,568.0,545.0,562.0,542.0,2,2
285,12.74,6.19,4.37,-0.05,-0.18,-0.11,545.0,569.0,545.0,563.0,542.0,2,2
286,12.07,1.07,3.39,-0.16,-0.13,-0.38,545.0,569.0,545.0,563.0,543.0,2,2
287,9.66,-2.46,0.45,-0.47,-0.17,-0.63,545.0,568.0,545.0,564.0,543.0,2,2
288,7.4,-6.77,-1.15,-0.54,0.0,-0.59,546.0,567.0,545.0,563.0,542.0,2,2
289,7.68,-11.07,-1.62,-0.16,0.11,-0.18,546.0,567.0,545.0,563.0,542.0,2,2
290,4.3,-7.63,-1.33,0.38,0.05,0.52,545.0,567.0,545.0,562.0,541.0,2,2
291,8.9,-5.67,-2.3,-0.26,-0.62,0.82,546.0,568.0,545.0,563.0,542.0,2,2
292,12.5,0.89,4.25,0.01,-0.4,0.38,546.0,568.0,545.0,563.0,542.0,2,2
293,12.72,4.36,4.04,0.24,0.21,0.06,547.0,569.0,546.0,563.0,543.0,2,2
294,11.62,0.77,3.24,-0.05,-0.1,-0.35,545.0,569.0,546.0,564.0,543.0,2,2
295,10.37,-2.47,0.6,-0.3,-0.07,-0.55,546.0,568.0,546.0,564.0,543.0,2,2
296,7.58,-5.09,-0.93,-0.33,0.18,-0.46,546.0,567.0,545.0,564.0,542.0,2,2
297,7.76,-10.26,-1.92,-0.38,-0.12,-0.32,546.0,568.0,545.0,564.0,542.0,2,2
298,4.77,-8.22,-1.02,0.59,0.68,0.64,546.0,568.0,545.0,563.0,543.0,2,2
299,8.49,-5.13,-0.61,0.15,-0.22,0.59,546.0,568.0,545.0,564.0,543.0,2,2
300,9.38,-3.43,0.84,-0.03,-0.03,0.0,550.0,570.0,549.0,567.0,545.0,3,2
301,9.18,-3.31,0.76,-0.18,-0.14,-0.02,550.0,569.0,547.0,566.0,545.0,3,2
302,9.8,-3.49,0.36,-0.08,-0.05,0.01,549.0,569.0,545.0,565.0,544.0,3,2
303,9.76,-3.22,0.29,-0.0,0.14,0.08,549.0,567.0,544.0,563.0,544.0,3,2
304,9.89,-3.54,1.05,0.09,0.28,0.21,548.0,566.0,543.0,562.0,543.0,3,2
305,8.87,-3.45,1.83,-0.09,0.01,0.03,548.0,566.0,542.0,561.0,543.0,3,2
306,9.58,-3.71,0.68,-0.05,-0.03,-0.02,547.0,566.0,542.0,561.0,544.0,3,2
307,9.8,-3.47,0.51,0.11,0.16,0.05,546.0,567.0,543.0,561.0,544.0,3,2
308,8.55,-3.77,1.89,0.05,0.11,0.01,545.0,567.0,545.0,562.0,544.0,3,2
309,9.28,-1.17,1.57,-0.0,0.05,-0.08,546.0,568.0,546.0,562.0,544.0,3,2
310,9.8,1.45,1.99,-0.11,0.16,-0.05,546.0,568.0,546.0,563.0,544.0,3,2
311,10.21,-2.05,0.51,-0.38,0.22,-0.14,545.0,568.0,546.0,563.0,545.0,3,2
312,8.03,-6.45,0.53,-0.45,0.11,-0.21,543.0,569.0,545.0,563.0,545.0,3,2
313,6.95,-9.92,-0.34,-0.33,0.01,-0.1,544.0,568.0,544.0,562.0,544.0,3,2
314,6.38,-7.57,0.06,0.09,0.04,0.21,541.0,567.0,544.0,560.0,545.0,3,2
315,8.53,-5.15,0.79,-0.0,0.15,0.31,543.0,568.0,545.0,561.0,546.0,3,2
316,10.85,-0.89,4.04,-0.15,-0.32,0.02,543.0,569.0,546.0,561.0,545.0,3,2
317,10.39,4.96,4.25,-0.03,0.06,-0.22,545.0,569.0,547.0,562.0,546.0,3,2
318,11.67,1.17,3.22,-0.01,0.28,0.0,545.0,570.0,547.0,563.0,547.0,3,2
319,10.25,-2.46,1.57,-0.29,-0.04,-0.43,545.0,570.0,547.0,563.0,548.0,3,2
320,7.78,-5.74,-1.13,-0.42,-0.11,-0.57,545.0,569.0,546.0,562.0,547.0,3,2
321,6.29,-10.99,-1.56,-0.1,0.09,-0.11,544.0,570.0,546.0,562.0,546.0,3,2
322,5.52,-8.51,-0.4,0.19,-0.01,0.28,544.0,568.0,547.0,562.0,546.0,3,2
323,9.23,-4.57,0.85,0.17,0.17,0.47,543.0,569.0,547.0,563.0,547.0,3,2
324,11.36,1.09,3.97,-0.06,-0.23,0.18,543.0,570.0,547.0,563.0,547.0,3,2
325,11.7,4.12,3.4,-0.15,-1.45,-0.06,544.0,570.0,548.0,563.0,549.0,3,2
326,10.46,1.14,3.48,-0.0,0.12,-0.09,544.0,570.0,548.0,564.0,549.0,3,2
327,10.24,-3.18,1.71,-0.31,-0.19,-0.45,544.0,569.0,547.0,564.0,550.0,3,2
328,7.6,-3.36,-1.05,-0.43,-0.17,-0.82,545.0,570.0,547.0,564.0,549.0,3,2
329,6.39,-11.37,-1.95,0.02,0.04,-0.02,544.0,570.0,547.0,564.0,548.0,3,2
330,4.23,-7.57,-0.54,0.27,0.07,0.38,543.0,570.0,548.0,563.0,548.0,3,2
331,10.47,-4.53,0.99,0.07,0.24,0.51,543.0,569.0,547.0,563.0,548.0,3,2
332,12.79,1.93,4.37,-0.1,-0.52,0.11,544.0,570.0,548.0,564.0,549.0,3,2
333,12.72,3.2,4.68,0.27,0.23,-0.17,545.0,569.0,549.0,564.0,550.0,3,2
334,9.38,1.18,3.45,0.13,-0.02,-0.17,546.0,571.0,549.0,564.0,550.0,3,2
335,9.72,-3.1,0.29,-0.31,0.06,-0.36,546.0,571.0,549.0,565.0,549.0,3,2
336,7.4,-17.64,-0.23,-0.86,-0.18,0.17,546.0,570.0,549.0,564.0,549.0,3,2
337,6.15,-10.36,-0.42,0.11,0.21,0.19,546.0,570.0,549.0,564.0,548.0,3,2
338,6.11,-7.32,-0.57,0.23,0.06,0.44,545.0,570.0,550.0,564.0,548.0,3,2
339,8.43,-4.35,0.29,0.07,0.29,0.59,545.0,571.0,550.0,564.0,548.0,3,2
340,14.28,1.35,5.42,0.18,0.48,0.55,547.0,572.0,550.0,564.0,550.0,3,2
341,12.3,4.65,5.23,0.06,-0.11,-0.22,547.0,572.0,550.0,565.0,550.0,3,2
342,11.76,0.05,3.17,-0.17,-0.18,-0.18,548.0,572.0,551.0,565.0,550.0,3,2
343,9.4,-3.1,0.38,-0.34,-0.06,-0.45,547.0,572.0,550.0,566.0,550.0,3,2
344,8.44,-9.5,-1.22,-0.4,-0.11,-0.36,546.0,571.0,550.0,565.0,548.0,3,2
345,6.9,-11.13,-0.89,-0.04,-0.1,-0.2,546.0,571.0,549.0,564.0,546.0,3,2
346,5.37,-6.84,-1.11,0.21,0.01,0.41,546.0,571.0,550.0,565.0,547.0,3,2
347,12.51,-2.89,2.7,-0.09,-0.0,0.55,547.0,572.0,551.0,565.0,548.0,3,2
348,11.54,4.09,4.46,0.01,-0.19,0.09,547.0,572.0,551.0,565.0,548.0,3,2
349,11.97,3.03,4.61,0.12,-0.32,-0.09,548.0,573.0,551.0,566.0,550.0,3,2
350,10.62,-1.56,2.29,-0.1,-0.12,-0.45,547.0,572.0,551.0,566.0,550.0,3,2
351,8.8,-5.7,-0.59,-0.4,-0.15,-0.57,546.0,572.0,551.0,566.0,550.0,3,2
352,6.43,-11.09,-2.07,-0.21,0.11,-0.21,547.0,572.0,551.0,566.0,549.0,3,2
353,5.69,-9.72,-0.65,0.38,0.26,0.47,546.0,573.0,551.0,565.0,549.0,3,2
354,7.77,-5.23,-0.36,0.14,0.19,0.47,547.0,573.0,551.0,566.0,549.0,3,2
355,12.54,0.63,4.74,-0.04,-0.21,0.35,546.0,572.0,552.0,566.0,551.0,3,2
356,13.25,6.39,5.42,-0.02,-0.2,-0.1,547.0,573.0,552.0,566.0,551.0,3,2
357,10.7,1.4,3.57,0.05,0.13,-0.21,547.0,573.0,552.0,566.0,552.0,3,2
358,10.04,-3.06,0.71,-0.33,-0.19,-0.53,547.0,574.0,552.0,566.0,552.0,3,2
359,7.09,-4.13,-2.07,-0.43,0.1,-0.79,547.0,574.0,551.0,567.0,551.0,3,2
360,6.28,-12.12,-1.81,0.05,0.15,0.01,547.0,573.0,550.0,566.0,549.0,3,2
361,4.26,-8.19,-0.9,0.32,-0.06,0.4,546.0,574.0,551.0,566.0,550.0,3,2
362,11.09,-3.87,1.14,0.26,0.34,0.64,547.0,573.0,551.0,566.0,551.0,3,2
363,13.53,3.46,5.15,-0.16,-0.78,-0.12,547.0,574.0,551.0,566.0,552.0,3,2
364,12.33,6.41,3.99,0.19,-0.06,-0.09,548.0,574.0,552.0,567.0,552.0,3,2
365,11.31,0.3,2.72,-0.14,-0.28,-0.3,547.0,574.0,552.0,567.0,553.0,3,2
366,8.62,-3.99,-0.28,-0.37,-0.12,-0.53,548.0,574.0,551.0,567.0,552.0,3,2
367,5.88,-9.31,-0.66,-0.36,-0.2,-0.32,547.0,573.0,551.0,567.0,551.0,3,2
368,11.62,-9.6,-0.85,-0.05,-0.15,0.19,547.0,573.0,549.0,566.0,550.0,3,2
369,4.88,-6.5,-1.19,0.52,0.39,0.55,547.0,573.0,550.0,565.0,550.0,3,2
370,13.32,-4.58,1.56,0.17,-0.42,0.52,547.0,573.0,551.0,567.0,551.0,3,2
371,11.38,2.78,3.86,-0.12,-0.56,-0.05,548.0,574.0,552.0,567.0,552.0,3,2
372,9.55,5.56,3.71,0.22,-0.12,-0.01,549.0,574.0,553.0,568.0,554.0,3,2
373,12.49,1.17,2.41,-0.25,-0.24,-0.32,549.0,574.0,553.0,568.0,553.0,3,2
374,9.58,-4.02,0.03,-0.42,0.02,-0.45,549.0,574.0,552.0,568.0,553.0,3,2
375,7.49,-10.9,-1.55,-0.47,-0.17,-0.43,547.0,574.0,552.0,567.0,551.0,3,2
376,8.18,-10.9,-1.75,0.33,0.34,0.28,549.0,573.0,551.0,566.0,550.0,3,2
377,5.61,-6.46,-1.59,0.27,0.21,0.51,548.0,573.0,552.0,567.0,551.0,3,2
378,12.61,-2.14,2.67,0.06,0.3,0.59,548.0,574.0,552.0,567.0,552.0,3,2
379,14.65,5.94,5.61,-0.2,-0.47,-0.0,550.0,574.0,553.0,568.0,554.0,3,2
380,11.18,5.01,3.75,0.13,0.01,-0.1,549.0,575.0,553.0,568.0,554.0,3,2
381,10.59,-0.47,1.69,-0.24,-0.17,-0.39,551.0,575.0,553.0,568.0,553.0,3,2
382,9.5,-5.78,-1.32,-0.54,-0.18,-0.56,550.0,574.0,552.0,567.0,553.0,3,2
383,7.28,-11.9,-2.47,-0.45,-0.12,-0.31,548.0,575.0,551.0,566.0,551.0,3,2
384,4.76,-9.19,-1.87,0.48,0.48,0.67,548.0,574.0,551.0,567.0,549.0,3,2
385,7.08,-6.36,-1.18,0.22,0.05,0.71,549.0,574.0,552.0,566.0,550.0,3,2
386,13.09,-0.46,3.91,0.06,0.07,0.59,548.0,574.0,552.0,567.0,552.0,3,2
387,13.12,6.29,4.55,0.01,0.06,0.08,549.0,576.0,553.0,568.0,552.0,3,2
388,12.53,1.67,3.75,0.07,0.31,-0.17,550.0,575.0,553.0,568.0,552.0,3,2
389,9.92,-3.01,0.89,-0.34,-0.0,-0.4,549.0,575.0,552.0,568.0,552.0,3,2
390,7.12,-4.36,-1.74,-0.48,-0.22,-0.52,547.0,575.0,551.0,567.0,551.0,3,2
391,7.55,-11.2,-2.42,0.16,0.34,-0.01,547.0,575.0,552.0,565.0,548.0,3,2
392,6.8,-6.85,0.06,0.01,-0.34,0.37,545.0,576.0,552.0,565.0,548.0,3,2
393,8.9,-2.33,1.8,0.2,0.11,0.7,547.0,575.0,551.0,564.0,547.0,3,2
394,13.38,4.17,5.0,-0.03,-0.32,0.05,547.0,574.0,552.0,564.0,547.0,3,2
395,12.14,2.02,4.61,0.19,-0.02,-0.21,545.0,573.0,551.0,564.0,548.0,3,2
396,10.13,-1.28,1.11,-0.13,0.04,-0.49,543.0,573.0,550.0,563.0,547.0,3,2
397,7.55,-7.53,-1.85,-0.46,0.03,-0.58,543.0,572.0,549.0,562.0,547.0,3,2
398,5.13,-11.57,-2.56,-0.16,0.19,-0.09,542.0,573.0,549.0,562.0,545.0,3,2
399,3.48,-8.33,-1.32,0.29,0.29,0.54,542.0,572.0,549.0,562.0,546.0,3,2
400,10.1,-6.27,0.79,0.38,0.28,0.7,543.0,573.0,549.0,562.0,547.0,3,2
401,11.5,0.57,3.94,0.1,-0.34,0.17,543.0,574.0,550.0,562.0,547.0,3,2
402,15.18,7.12,5.35,-0.15,-0.78,0.16,544.0,574.0,551.0,563.0,548.0,3,2
403,11.18,0.79,4.02,-0.15,-0.38,-0.3,544.0,574.0,550.0,563.0,548.0,3,2
404,10.75,-3.24,0.4,-0.51,-0.05,-0.58,543.0,574.0,550.0,563.0,548.0,3,2
405,7.89,-4.61,-2.21,-0.63,-0.51,-1.06,543.0,574.0,549.0,563.0,548.0,3,2
406,5.81,-11.96,-2.17,-0.01,0.08,-0.04,543.0,573.0,549.0,562.0,548.0,3,2
407,4.7,-8.11,-1.15,0.22,-0.15,0.39,543.0,573.0,549.0,562.0,547.0,3,2
408,10.3,-4.83,-0.13,0.15,0.14,0.63,544.0,573.0,549.0,563.0,548.0,3,2
409,11.53,2.34,3.72,0.21,-0.13,0.18,543.0,574.0,550.0,562.0,548.0,3,2
410,9.91,4.71,4.45,-0.08,-0.13,0.06,544.0,573.0,551.0,563.0,549.0,3,2
411,11.73,0.23,3.3,-0.13,-0.24,-0.36,544.0,574.0,551.0,564.0,549.0,3,2
412,10.26,-3.53,-0.67,-0.5,-0.09,-0.62,544.0,573.0,550.0,564.0,549.0,3,2
413,6.8,-9.53,-2.54,-0.52,0.11,-0.47,544.0,573.0,549.0,563.0,548.0,3,2
414,6.73,-10.92,-1.45,0.16,0.07,-0.36,543.0,572.0,549.0,563.0,548.0,3,2
415,5.59,-8.27,-2.51,0.19,-0.12,0.45,543.0,573.0,549.0,562.0,547.0,3,2
416,9.5,-3.5,0.31,0.26,0.68,0.85,543.0,573.0,549.0,562.0,548.0,3,2
417,12.6,2.92,4.9,0.1,-0.22,0.09,544.0,574.0,550.0,562.0,549.0,3,2
418,10.61,4.81,5.31,-0.09,-0.43,-0.01,543.0,574.0,551.0,563.0,549.0,3,2
419,10.91,0.48,2.78,-0.11,-0.17,-0.42,544.0,574.0,550.0,564.0,549.0,3,2
420,10.42,-4.1,-0.71,-0.44,-0.09,-0.53,543.0,573.0,549.0,563.0,549.0,3,2
421,7.3,-10.06,-2.21,-0.37,0.01,-0.44,543.0,574.0,549.0,562.0,549.0,3,2
422,5.89,-11.16,-1.3,0.11,-0.04,-0.15,543.0,573.0,549.0,561.0,548.0,3,2
423,6.12,-7.39,-1.99,0.14,-0.21,0.39,543.0,574.0,549.0,561.0,548.0,3,2
424,10.17,-3.81,0.15,0.18,0.29,0.71,544.0,574.0,550.0,562.0,548.0,3,2
425,11.88,1.92,4.08,0.11,-0.1,0.16,544.0,574.0,550.0,562.0,548.0,3,2
426,6.71,3.51,3.56,0.23,0.3,-0.02,544.0,574.0,551.0,562.0,550.0,3,2
427,11.08,0.88,2.89,-0.02,-0.2,-0.25,544.0,574.0,551.0,562.0,549.0,3,2
428,10.58,-3.52,0.12,-0.31,-0.06,-0.51,543.0,575.0,551.0,562.0,549.0,3,2
429,5.48,-9.76,-1.22,-0.94,0.78,-0.44,544.0,574.0,550.0,562.0,549.0,3,2
430,5.05,-11.26,-1.76,0.16,0.32,0.05,544.0,574.0,550.0,562.0,549.0,3,2
431,5.6,-8.27,-1.39,0.11,-0.16,0.37,544.0,574.0,550.0,561.0,549.0,3,2
432,8.67,-7.56,0.71,0.17,0.07,0.47,543.0,574.0,550.0,562.0,548.0,3,2
433,13.04,0.34,3.87,0.01,-0.1,0.36,544.0,574.0,550.0,563.0,549.0,3,2
434,16.04,4.32,6.04,0.08,0.81,-0.28,544.0,575.0,551.0,562.0,549.0,3,2
435,11.49,0.98,3.49,0.14,0.28,-0.12,544.0,575.0,551.0,562.0,549.0,3,2
436,10.47,-2.58,0.86,-0.11,0.05,-0.43,544.0,574.0,551.0,563.0,550.0,3,2
437,8.08,-3.9,-1.78,-0.2,0.14,-0.88,544.0,575.0,551.0,562.0,550.0,3,2
438,5.83,-10.97,-2.24,0.01,0.04,-0.09,543.0,575.0,551.0,563.0,550.0,3,2
439,4.04,-7.61,-0.99,0.13,-0.21,0.31,542.0,575.0,550.0,563.0,549.0,3,2
440,9.51,-5.24,-0.4,-0.02,0.04,0.58,544.0,574.0,550.0,562.0,550.0,3,2
441,13.53,0.06,4.07,-0.05,-0.48,0.38,545.0,574.0,550.0,562.0,549.0,3,2
442,16.54,4.74,5.87,0.07,0.12,-0.3,545.0,575.0,551.0,563.0,550.0,3,2
443,12.07,0.7,3.31,0.04,0.04,-0.18,544.0,575.0,552.0,563.0,550.0,3,2
444,10.14,-2.46,1.23,-0.14,-0.09,-0.45,544.0,575.0,551.0,563.0,550.0,3,2
445,7.56,-2.8,-1.49,-0.32,0.31,-0.79,544.0,575.0,551.0,563.0,550.0,3,2
446,6.09,-10.48,-2.23,-0.11,-0.04,-0.19,543.0,574.0,550.0,563.0,550.0,3,2
447,3.65,-8.04,-1.67,0.26,0.09,0.4,543.0,574.0,550.0,562.0,550.0,3,2
448,9.91,-5.82,-0.32,0.05,0.2,0.61,543.0,573.0,550.0,562.0,550.0,3,2
449,14.07,-0.26,4.07,-0.18,-0.64,0.18,543.0,574.0,550.0,562.0,550.0,3,2
450,9.16,-3.29,0.92,-0.03,-0.03,0.01,547.0,576.0,552.0,566.0,553.0,4,2
451,9.29,-3.54,1.13,-0.08,-0.11,-0.02,546.0,575.0,552.0,566.0,553.0,4,2
452,9.43,-3.34,0.69,-0.08,-0.09,-0.03,546.0,575.0,551.0,566.0,553.0,4,2
453,9.3,-3.42,0.75,0.05,0.05,0.08,546.0,575.0,551.0,566.0,552.0,4,2
454,9.04,-3.5,1.22,-0.14,-0.07,0.0,545.0,575.0,550.0,564.0,552.0,4,2
455,9.35,-3.51,0.59,-0.11,-0.02,-0.0,545.0,574.0,550.0,564.0,550.0,4,2
456,9.24,-3.47,0.81,0.06,0.13,0.1,544.0,574.0,548.0,564.0,550.0,4,2
457,8.83,-3.32,1.09,-0.09,-0.08,0.02,543.0,574.0,547.0,562.0,550.0,4,2
458,9.72,-3.77,0.75,0.06,0.13,0.12,543.0,573.0,547.0,561.0,549.0,4,2
459,9.59,-4.05,1.02,0.17,0.3,0.14,542.0,574.0,546.0,559.0,549.0,4,2
460,9.45,-2.35,2.11,0.15,0.24,0.09,540.0,574.0,547.0,560.0,549.0,4,2
461,9.74,-1.33,1.85,0.06,0.24,0.04,540.0,574.0,547.0,559.0,547.0,4,2
462,9.2,-3.48,1.26,-0.01,0.2,-0.07,539.0,574.0,547.0,559.0,547.0,4,2
463,7.97,-7.31,0.42,-0.06,0.11,-0.13,539.0,574.0,547.0,558.0,548.0,4,2
464,7.18,-7.06,0.24,0.1,0.2,0.08,538.0,574.0,547.0,558.0,547.0,4,2
465,6.85,-5.07,0.14,0.0,0.02,0.09,539.0,574.0,546.0,558.0,547.0,4,2
466,10.18,-3.31,1.8,0.01,0.18,0.25,541.0,575.0,547.0,558.0,547.0,4,2
467,10.4,0.52,4.07,-0.14,-0.76,0.26,541.0,575.0,547.0,558.0,547.0,4,2
468,9.57,-0.91,3.55,-0.13,0.03,-0.03,540.0,575.0,548.0,558.0,548.0,4,2
469,10.09,-1.44,2.88,-0.05,0.04,-0.14,541.0,575.0,548.0,559.0,549.0,4,2
470,8.39,-3.57,1.55,-0.13,0.08,-0.26,541.0,575.0,548.0,560.0,548.0,4,2
471,5.78,-9.47,0.08,-0.08,0.12,0.07,541.0,575.0,548.0,560.0,549.0,4,2
472,7.66,-7.64,0.55,0.12,0.03,0.11,540.0,574.0,548.0,559.0,548.0,4,2
473,7.14,-5.74,0.63,0.02,0.09,0.27,541.0,575.0,548.0,559.0,548.0,4,2
474,10.96,-3.12,2.68,0.02,0.15,0.27,540.0,574.0,548.0,560.0,549.0,4,2
475,10.63,1.19,4.27,-0.1,-0.2,-0.01,541.0,576.0,548.0,560.0,549.0,4,2
476,11.66,-0.89,3.43,0.01,0.03,-0.03,540.0,575.0,549.0,560.0,550.0,4,2
477,9.4,-1.49,2.76,-0.05,0.04,-0.16,540.0,575.0,548.0,560.0,551.0,4,2
478,9.0,-4.47,1.37,-0.14,0.06,-0.26,541.0,575.0,548.0,561.0,550.0,4,2
479,7.0,-6.07,-0.76,-0.12,-0.12,-0.64,541.0,575.0,548.0,561.0,550.0,4,2
480,7.16,-8.14,0.22,0.2,0.14,0.23,540.0,575.0,548.0,560.0,550.0,4,2
481,6.1,-6.61,0.11,-0.06,-0.14,0.23,541.0,575.0,548.0,561.0,550.0,4,2
482,11.64,-4.14,2.3,-0.0,-0.04,0.27,540.0,575.0,548.0,561.0,550.0,4,2
483,12.24,1.4,4.01,-0.08,-0.14,0.07,542.0,575.0,549.0,561.0,550.0,4,2
484,10.19,0.34,3.65,0.09,0.13,0.03,541.0,575.0,549.0,561.0,550.0,4,2
485,9.66,-0.46,3.02,-0.03,-0.02,-0.17,542.0,575.0,549.0,562.0,551.0,4,2
486,9.82,-3.76,1.56,-0.19,0.06,-0.27,541.0,576.0,549.0,561.0,551.0,4,2
487,6.69,-8.31,-0.7,-0.26,-0.14,-0.31,541.0,575.0,549.0,562.0,552.0,4,2
488,11.46,-7.44,-0.19,-0.01,-0.26,-0.2,541.0,575.0,548.0,561.0,551.0,4,2
489,5.53,-6.65,-0.31,-0.02,-0.09,0.28,541.0,576.0,549.0,561.0,551.0,4,2
490,12.19,-4.55,3.54,0.05,-0.09,0.28,541.0,575.0,549.0,561.0,550.0,4,2
491,12.34,2.22,4.1,-0.09,-0.2,0.01,542.0,576.0,550.0,562.0,550.0,4,2
492,12.73,0.5,4.02,0.1,-0.07,0.04,542.0,576.0,550.0,562.0,551.0,4,2
493,10.71,-1.14,2.97,0.04,0.08,-0.18,542.0,576.0,550.0,562.0,552.0,4,2
494,9.44,-4.18,1.2,-0.15,0.02,-0.33,542.0,576.0,549.0,562.0,552.0,4,2
495,7.47,-8.56,-0.91,-0.24,-0.15,-0.33,542.0,576.0,550.0,562.0,552.0,4,2
496,6.48,-9.86,-0.37,0.21,0.13,0.17,541.0,575.0,550.0,562.0,552.0,4,2
497,6.11,-6.88,-0.31,0.01,-0.04,0.32,541.0,576.0,550.0,562.0,551.0,4,2
498,11.48,-3.79,2.42,-0.01,0.27,0.45,542.0,575.0,550.0,562.0,552.0,4,2
499,10.21,1.33,4.15,-0.09,-0.28,-0.02,541.0,576.0,551.0,562.0,551.0,4,2
500,10.98,1.78,4.41,0.17,0.13,0.0,542.0,576.0,550.0,563.0,552.0,4,2
501,10.26,-0.74,3.36,0.08,-0.01,-0.19,543.0,575.0,551.0,563.0,553.0,4,2
502,9.06,-4.43,0.83,-0.17,0.01,-0.28,543.0,575.0,551.0,563.0,553.0,4,2
503,7.49,-9.49,-0.96,-0.16,0.02,-0.17,542.0,575.0,550.0,562.0,553.0,4,2
504,6.27,-8.45,-0.17,0.09,-0.05,0.14,542.0,575.0,550.0,562.0,552.0,4,2
505,7.01,-6.61,-0.13,0.01,-0.02,0.34,543.0,575.0,551.0,563.0,552.0,4,2
506,13.46,-4.33,3.78,-0.02,0.38,0.47,542.0,576.0,550.0,563.0,551.0,4,2
507,12.02,2.89,4.5,-0.07,-0.18,0.03,543.0,575.0,552.0,563.0,552.0,4,2
508,11.34,1.63,4.75,0.18,-0.06,0.1,542.0,578.0,551.0,563.0,553.0,4,2
509,10.23,-0.62,3.25,-0.04,-0.01,-0.21,542.0,577.0,551.0,563.0,553.0,4,2
510,8.88,-4.57,1.19,-0.28,-0.03,-0.41,543.0,576.0,550.0,563.0,553.0,4,2
511,6.82,-8.6,-0.43,-0.21,0.07,-0.38,543.0,577.0,551.0,564.0,553.0,4,2
512,7.69,-9.19,-0.24,0.02,-0.06,-0.11,542.0,576.0,551.0,563.0,552.0,4,2
513,5.49,-6.75,-0.36,0.13,0.16,0.39,541.0,576.0,551.0,563.0,552.0,4,2
514,10.89,-4.68,1.6,-0.15,0.11,0.37,541.0,577.0,551.0,563.0,553.0,4,2
515,9.8,0.69,4.83,0.01,-0.11,0.09,540.0,577.0,551.0,563.0,552.0,4,2
516,8.76,0.99,3.92,0.04,0.05,-0.25,542.0,576.0,552.0,563.0,553.0,4,2
517,10.48,-0.27,3.34,0.04,-0.02,-0.05,542.0,577.0,552.0,564.0,553.0,4,2
518,9.4,-3.51,2.2,-0.18,-0.07,-0.3,542.0,577.0,552.0,564.0,554.0,4,2
519,7.05,-2.61,0.4,-0.28,-0.14,-0.48,542.0,577.0,552.0,564.0,554.0,4,2
520,6.71,-10.06,-0.45,0.03,0.07,-0.03,541.0,576.0,552.0,564.0,554.0,4,2
521,5.42,-7.24,-0.09,0.1,-0.02,0.25,541.0,576.0,552.0,563.0,553.0,4,2
522,8.3,-4.4,0.69,-0.14,0.06,0.38,542.0,577.0,552.0,564.0,553.0,4,2
523,10.51,-1.15,3.89,0.03,-0.14,0.07,542.0,577.0,552.0,563.0,552.0,4,2
524,12.22,2.41,4.41,-0.05,-0.21,0.08,542.0,577.0,552.0,564.0,552.0,4,2
525,10.9,-0.19,3.64,0.12,0.02,-0.08,543.0,577.0,553.0,564.0,554.0,4,2
526,9.59,-2.8,2.04,-0.09,-0.02,-0.29,542.0,578.0,552.0,564.0,554.0,4,2
527,8.15,-3.35,0.91,-0.21,-0.1,-0.4,543.0,577.0,553.0,564.0,554.0,4,2
528,6.98,-9.29,-0.56,-0.03,-0.0,-0.17,542.0,577.0,552.0,564.0,554.0,4,2
529,4.86,-8.22,-0.13,0.2,0.16,0.37,542.0,577.0,553.0,564.0,554.0,4,2
530,7.55,-5.69,0.43,0.06,0.32,0.38,542.0,578.0,552.0,565.0,554.0,4,2
531,12.68,-2.36,3.73,-0.17,-0.25,0.21,542.0,578.0,552.0,565.0,554.0,4,2
532,11.03,3.76,4.29,-0.1,-0.28,-0.06,543.0,577.0,553.0,565.0,554.0,4,2
533,11.54,0.74,4.21,-0.03,0.01,-0.05,544.0,578.0,553.0,564.0,555.0,4,2
534,9.54,-1.15,2.39,-0.06,-0.15,-0.23,543.0,579.0,553.0,565.0,555.0,4,2
535,8.69,-4.94,0.79,-0.3,-0.0,-0.32,543.0,578.0,553.0,565.0,555.0,4,2
536,6.95,-10.17,-1.1,-0.39,-0.2,-0.34,543.0,579.0,553.0,565.0,555.0,4,2
537,5.48,-8.98,-0.82,0.2,0.19,0.32,543.0,578.0,553.0,564.0,554.0,4,2
538,7.66,-6.77,-0.18,0.07,0.03,0.44,545.0,578.0,554.0,564.0,553.0,4,2
539,8.34,-3.15,1.64,0.21,0.09,0.18,544.0,578.0,553.0,564.0,553.0,4,2
540,12.27,1.9,4.39,0.16,0.18,0.19,543.0,579.0,553.0,565.0,553.0,4,2
541,11.8,1.59,5.6,0.04,-0.29,0.0,544.0,578.0,553.0,564.0,554.0,4,2
542,10.14,-0.07,2.93,-0.02,-0.14,-0.32,544.0,578.0,553.0,565.0,555.0,4,2
543,9.36,-3.46,1.36,-0.28,-0.03,-0.38,544.0,578.0,553.0,565.0,556.0,4,2
544,7.65,-6.85,-0.38,-0.39,-0.12,-0.43,544.0,577.0,553.0,565.0,557.0,4,2
545,6.36,-11.39,-1.12,0.07,0.15,-0.0,544.0,577.0,553.0,565.0,555.0,4,2
546,5.32,-8.28,-0.62,0.14,-0.0,0.36,543.0,577.0,553.0,565.0,555.0,4,2
547,8.15,-4.88,0.24,0.0,0.05,0.45,543.0,578.0,553.0,565.0,555.0,4,2
548,12.82,-0.94,4.48,-0.15,0.12,0.43,544.0,578.0,553.0,565.0,555.0,4,2
549,13.74,3.72,6.38,-0.05,-0.11,-0.21,545.0,577.0,553.0,565.0,555.0,4,2
550,11.8,0.14,4.71,0.04,-0.03,-0.12,544.0,578.0,554.0,566.0,556.0,4,2
551,10.21,-1.18,2.62,-0.05,-0.07,-0.31,544.0,579.0,554.0,565.0,556.0,4,2
552,8.8,-4.55,0.43,-0.25,-0.04,-0.43,544.0,578.0,553.0,566.0,556.0,4,2
553,7.09,-10.15,-1.75,-0.24,-0.04,-0.33,544.0,579.0,553.0,566.0,556.0,4,2
554,4.55,-10.69,-0.41,0.31,0.2,0.16,543.0,577.0,553.0,565.0,556.0,4,2
555,7.01,-6.74,-1.38,-0.01,-0.29,0.26,544.0,577.0,554.0,565.0,556.0,4,2
556,10.7,-3.87,1.32,0.19,0.45,0.64,544.0,576.0,554.0,565.0,557.0,4,2
557,11.6,1.03,5.08,0.21,0.02,0.15,545.0,578.0,553.0,566.0,555.0,4,2
558,10.55,2.83,4.4,0.16,-0.11,-0.11,545.0,579.0,554.0,566.0,556.0,4,2
559,11.03,0.85,3.06,0.01,-0.05,-0.2,545.0,578.0,554.0,565.0,557.0,4,2
560,9.72,-2.2,1.69,-0.21,-0.18,-0.36,544.0,578.0,554.0,566.0,557.0,4,2
561,7.9,-5.5,0.08,-0.29,-0.14,-0.42,545.0,578.0,553.0,566.0,557.0,4,2
562,8.0,-9.04,-0.92,-0.29,-0.17,-0.38,545.0,577.0,553.0,566.0,557.0,4,2
563,6.7,-9.58,-0.26,0.24,0.06,0.12,544.0,576.0,553.0,565.0,556.0,4,2
564,7.25,-6.65,-0.97,0.26,0.18,0.42,544.0,577.0,553.0,566.0,555.0,4,2
565,9.0,-5.05,0.61,0.2,0.34,0.54,544.0,578.0,553.0,566.0,556.0,4,2
566,11.76,-0.31,3.57,0.02,0.04,0.26,545.0,577.0,553.0,566.0,556.0,4,2
567,12.99,4.2,5.37,0.1,0.32,-0.08,544.0,578.0,554.0,566.0,556.0,4,2
568,10.81,1.14,4.27,0.08,0.03,0.06,545.0,578.0,554.0,566.0,557.0,4,2
569,10.47,-1.82,2.11,-0.16,-0.27,-0.35,545.0,578.0,553.0,567.0,557.0,4,2
570,8.32,-4.45,0.06,-0.33,-0.28,-0.49,545.0,578.0,554.0,566.0,557.0,4,2
571,7.76,-9.13,-0.66,-0.25,-0.04,-0.27,544.0,578.0,553.0,566.0,557.0,4,2
572,9.15,-7.82,0.0,0.11,0.03,-0.09,544.0,578.0,553.0,566.0,556.0,4,2
573,6.74,-6.55,-1.14,0.07,-0.09,0.3,545.0,578.0,553.0,567.0,556.0,4,2
574,9.41,-4.97,0.6,0.2,0.47,0.63,545.0,577.0,553.0,566.0,556.0,4,2
575,12.87,-0.27,4.81,-0.25,-0.55,0.03,544.0,578.0,553.0,566.0,556.0,4,2
576,10.04,4.96,3.6,0.03,0.16,-0.06,545.0,578.0,554.0,566.0,557.0,4,2
577,11.87,0.39,3.67,0.08,-0.0,0.05,544.0,577.0,554.0,567.0,557.0,4,2
578,9.85,-2.31,2.05,-0.07,-0.03,-0.27,545.0,578.0,554.0,566.0,558.0,4,2
579,8.79,-5.04,0.55,-0.24,-0.13,-0.4,544.0,577.0,554.0,566.0,557.0,4,2
580,7.26,-8.86,-0.86,-0.27,-0.05,-0.23,545.0,578.0,553.0,567.0,558.0,4,2
581,6.63,-10.2,-0.09,0.22,0.03,0.18,543.0,577.0,553.0,566.0,557.0,4,2
582,6.87,-6.94,-0.78,0.1,0.08,0.39,544.0,577.0,553.0,566.0,558.0,4,2
583,10.47,-4.7,1.26,-0.04,0.18,0.46,545.0,577.0,553.0,566.0,558.0,4,2
584,10.69,0.93,4.02,-0.05,-0.21,0.08,544.0,578.0,554.0,566.0,557.0,4,2
585,11.94,4.18,3.99,0.11,-0.19,-0.05,545.0,579.0,554.0,566.0,558.0,4,2
586,11.72,1.21,3.64,0.15,0.08,-0.11,545.0,579.0,554.0,567.0,558.0,4,2
587,10.32,-2.3,1.73,-0.08,0.06,-0.29,545.0,578.0,554.0,566.0,558.0,4,2
588,8.2,-6.65,0.28,-0.25,0.03,-0.45,545.0,577.0,554.0,566.0,558.0,4,2
589,6.31,-10.98,-1.23,-0.21,-0.15,-0.33,543.0,578.0,554.0,566.0,558.0,4,2
590,5.24,-9.26,-0.86,0.13,-0.1,0.21,544.0,577.0,553.0,566.0,557.0,4,2
591,7.64,-6.58,-0.52,0.11,0.16,0.5,545.0,578.0,553.0,566.0,558.0,4,2
592,10.27,-4.24,2.42,-0.0,-0.04,0.37,544.0,577.0,553.0,566.0,558.0,4,2
593,11.19,2.13,3.19,0.01,0.03,0.14,545.0,577.0,554.0,566.0,558.0,4,2
594,11.2,3.42,4.87,0.31,0.24,0.11,544.0,578.0,554.0,567.0,559.0,4,2
595,11.17,0.54,3.84,0.12,0.05,-0.11,546.0,578.0,554.0,566.0,559.0,4,2
596,9.93,-1.54,1.84,-0.19,-0.08,-0.33,544.0,578.0,554.0,567.0,559.0,4,2
597,9.04,-4.69,0.67,-0.32,-0.05,-0.42,544.0,578.0,554.0,566.0,560.0,4,2
598,7.18,-8.27,-0.89,-0.27,-0.13,-0.4,545.0,578.0,554.0,567.0,559.0,4,2
599,6.3,-9.86,-0.57,-0.16,-0.22,-0.17,544.0,578.0,554.0,566.0,558.0,4,2
600,8.67,-3.43,2.46,-0.11,-0.03,0.01,550.0,536.0,521.0,566.0,575.0,5,2
601,8.65,-3.36,2.15,-0.27,-0.22,0.02,549.0,536.0,520.0,566.0,574.0,5,2
602,9.05,-3.4,2.12,-0.12,0.07,0.08,549.0,537.0,520.0,564.0,573.0,5,2
603,9.32,-3.79,2.31,-0.18,0.06,0.13,546.0,537.0,520.0,563.0,573.0,5,2
604,9.11,-4.07,2.58,-0.17,0.09,0.13,545.0,537.0,519.0,562.0,572.0,5,2
605,7.1,-3.61,2.88,-0.12,0.16,0.05,544.0,537.0,519.0,561.0,572.0,5,2
606,8.71,-3.89,2.58,-0.1,-0.08,-0.05,544.0,537.0,519.0,562.0,572.0,5,2
607,10.36,-2.32,3.02,-0.06,-0.13,-0.12,545.0,538.0,520.0,562.0,573.0,5,2
608,9.13,-1.08,2.34,-0.27,-0.25,-0.25,545.0,537.0,520.0,562.0,573.0,5,2
609,8.46,-3.47,1.44,-0.41,-0.08,-0.2,544.0,537.0,520.0,563.0,573.0,5,2
610,8.4,-7.75,0.37,-0.54,-0.12,-0.15,543.0,538.0,521.0,562.0,573.0,5,2
611,7.85,-7.59,0.68,0.12,0.22,0.16,544.0,538.0,521.0,560.0,572.0,5,2
612,7.81,-6.46,1.87,0.24,0.3,0.28,545.0,539.0,521.0,561.0,573.0,5,2
613,8.97,-1.63,2.83,-0.07,0.17,0.07,545.0,539.0,522.0,561.0,573.0,5,2
614,10.89,1.53,4.38,-0.21,-0.09,-0.05,545.0,539.0,522.0,563.0,573.0,5,2
615,10.42,-0.05,3.97,-0.16,-0.17,-0.13,545.0,541.0,523.0,563.0,574.0,5,2
616,9.69,-2.05,2.94,-0.27,-0.02,-0.17,545.0,539.0,523.0,563.0,574.0,5,2
617,7.82,-4.87,0.54,-0.39,-0.04,-0.24,545.0,539.0,523.0,563.0,574.0,5,2
618,8.2,-9.16,-0.48,-0.32,0.12,-0.11,544.0,539.0,524.0,563.0,573.0,5,2
619,6.83,-7.93,0.54,0.24,0.18,0.3,546.0,539.0,523.0,562.0,573.0,5,2
620,7.22,-7.22,2.12,0.13,0.06,0.17,544.0,540.0,523.0,562.0,573.0,5,2
621,7.84,-2.85,2.21,0.18,0.13,0.16,546.0,540.0,523.0,563.0,573.0,5,2
622,10.71,0.14,4.18,-0.04,-0.15,-0.04,546.0,539.0,524.0,563.0,573.0,5,2
623,7.32,0.99,3.45,-0.02,-0.27,-0.26,546.0,541.0,524.0,564.0,573.0,5,2
624,9.56,0.01,3.11,-0.17,-0.16,-0.16,546.0,541.0,524.0,564.0,574.0,5,2
625,9.67,-3.17,2.19,-0.34,-0.29,-0.24,546.0,541.0,524.0,564.0,574.0,5,2
626,8.1,-5.53,-0.14,-0.36,-0.27,-0.29,546.0,540.0,525.0,564.0,573.0,5,2
627,6.94,-10.47,-0.56,-0.03,0.06,0.0,547.0,541.0,525.0,564.0,573.0,5,2
628,6.53,-8.06,0.59,0.19,0.02,0.25,547.0,541.0,525.0,563.0,573.0,5,2
629,8.54,-5.88,0.74,0.1,-0.37,0.08,546.0,541.0,525.0,564.0,573.0,5,2
630,9.7,-1.55,1.92,0.19,0.17,0.28,547.0,541.0,526.0,563.0,573.0,5,2
631,11.28,2.12,4.27,0.05,-0.08,-0.04,547.0,540.0,527.0,564.0,573.0,5,2
632,9.63,0.18,3.76,-0.06,-0.1,-0.06,547.0,541.0,527.0,565.0,573.0,5,2
633,9.27,-0.46,2.42,-0.15,-0.05,-0.18,547.0,541.0,527.0,565.0,573.0,5,2
634,9.57,-3.42,1.31,-0.4,-0.13,-0.28,547.0,541.0,527.0,564.0,574.0,5,2
635,8.74,-6.44,-0.96,-0.39,-0.02,-0.3,548.0,541.0,527.0,565.0,573.0,5,2
636,6.89,-10.58,-0.79,0.1,0.24,0.17,546.0,542.0,527.0,565.0,573.0,5,2
637,5.14,-7.77,1.01,0.24,0.04,0.27,546.0,541.0,527.0,564.0,574.0,5,2
638,9.38,-6.05,1.02,0.25,0.11,0.26,547.0,541.0,527.0,564.0,573.0,5,2
639,9.7,-2.83,1.86,0.3,0.25,0.33,547.0,541.0,527.0,565.0,572.0,5,2
640,10.2,1.73,3.79,0.22,0.18,0.13,546.0,542.0,527.0,565.0,573.0,5,2
641,8.32,2.34,3.53,0.07,-0.19,0.07,548.0,541.0,527.0,565.0,573.0,5,2
642,10.18,-0.15,3.41,-0.18,-0.24,-0.25,548.0,542.0,528.0,566.0,574.0,5,2
643,10.13,-3.24,1.75,-0.41,-0.18,-0.31,548.0,541.0,528.0,566.0,574.0,5,2
644,8.03,-7.04,-0.29,-0.45,-0.11,-0.36,547.0,541.0,528.0,565.0,574.0,5,2
645,6.98,-10.81,-0.6,0.03,0.14,0.02,547.0,541.0,528.0,566.0,574.0,5,2
646,5.77,-8.01,0.68,0.25,0.0,0.25,546.0,541.0,527.0,565.0,574.0,5,2
647,10.74,-6.76,1.81,0.21,-0.0,0.4,547.0,541.0,527.0,565.0,573.0,5,2
648,9.36,-2.97,1.7,0.07,-0.12,0.27,547.0,542.0,528.0,565.0,574.0,5,2
649,9.84,1.21,3.57,0.18,0.15,0.12,547.0,541.0,528.0,565.0,574.0,5,2
650,7.84,0.93,4.12,0.19,0.19,-0.19,547.0,541.0,528.0,565.0,574.0,5,2
651,11.06,-0.06,4.01,-0.03,-0.27,-0.24,548.0,541.0,528.0,565.0,575.0,5,2
652,9.65,-1.94,1.89,-0.22,-0.2,-0.26,548.0,541.0,528.0,565.0,574.0,5,2
653,8.19,-6.84,-0.31,-0.41,-0.11,-0.32,548.0,541.0,529.0,566.0,574.0,5,2
654,6.64,-11.23,-0.96,-0.19,0.03,-0.06,548.0,542.0,528.0,566.0,574.0,5,2
655,5.4,-8.28,0.38,0.26,0.12,0.32,546.0,541.0,528.0,565.0,574.0,5,2
656,9.69,-6.42,1.27,0.11,-0.26,0.17,547.0,542.0,528.0,566.0,574.0,5,2
657,8.94,-2.32,1.88,0.13,-0.09,0.27,548.0,542.0,528.0,565.0,574.0,5,2
658,11.49,1.75,3.99,0.18,0.2,0.15,548.0,541.0,528.0,566.0,574.0,5,2
659,10.81,1.95,3.9,-0.27,-0.26,-0.02,547.0,542.0,529.0,566.0,574.0,5,2
660,9.7,-0.78,3.22,-0.05,-0.15,-0.29,548.0,541.0,529.0,566.0,575.0,5,2
661,9.56,-3.93,1.21,-0.26,-0.2,-0.33,548.0,541.0,529.0,566.0,574.0,5,2
662,9.29,-6.7,-0.16,-0.24,-0.08,-0.29,548.0,542.0,529.0,566.0,574.0,5,2
663,7.07,-10.1,-0.34,0.11,0.22,0.1,548.0,541.0,529.0,566.0,574.0,5,2
664,5.47,-7.29,0.49,0.15,-0.02,0.2,547.0,543.0,530.0,566.0,574.0,5,2
665,9.45,-5.76,1.14,0.15,0.18,0.39,547.0,543.0,529.0,566.0,574.0,5,2
666,9.62,-1.95,2.68,0.04,-0.03,0.21,548.0,542.0,530.0,566.0,574.0,5,2
667,10.84,1.56,4.87,0.1,-0.06,0.07,548.0,542.0,530.0,567.0,574.0,5,2
668,11.95,0.9,4.25,-0.08,-0.12,-0.01,548.0,542.0,530.0,566.0,574.0,5,2
669,8.88,-0.48,2.19,-0.17,-0.19,-0.29,549.0,542.0,530.0,567.0,574.0,5,2
670,9.12,-4.82,1.17,-0.28,-0.05,-0.3,548.0,542.0,530.0,567.0,574.0,5,2
671,7.24,-8.83,-0.85,-0.28,-0.05,-0.23,549.0,542.0,530.0,566.0,575.0,5,2
672,9.62,-7.84,0.58,0.12,0.27,0.41,548.0,541.0,529.0,566.0,574.0,5,2
673,6.65,-6.87,0.73,0.13,0.07,0.26,548.0,542.0,530.0,565.0,574.0,5,2
674,10.35,-4.68,2.09,0.23,0.01,0.23,548.0,542.0,529.0,566.0,575.0,5,2
675,9.8,-1.5,2.58,-0.04,-0.14,0.17,548.0,542.0,529.0,567.0,574.0,5,2
676,9.07,0.17,3.53,0.2,1.1,-0.15,548.0,543.0,530.0,567.0,574.0,5,2
677,11.57,-0.15,4.47,-0.15,-0.2,0.02,549.0,542.0,531.0,566.0,574.0,5,2
678,8.85,-0.01,2.57,-0.19,-0.34,-0.32,549.0,542.0,530.0,567.0,574.0,5,2
679,8.57,-4.34,1.61,-0.22,-0.05,-0.21,549.0,543.0,530.0,567.0,574.0,5,2
680,8.36,-8.33,-0.62,-0.44,-0.38,-0.41,548.0,542.0,530.0,567.0,574.0,5,2
681,7.99,-9.27,-0.41,0.16,0.2,0.2,548.0,542.0,529.0,566.0,574.0,5,2
682,5.71,-7.17,0.11,0.12,-0.22,0.17,547.0,543.0,529.0,566.0,574.0,5,2
683,11.03,-5.94,1.87,0.15,0.13,0.39,547.0,542.0,530.0,566.0,574.0,5,2
684,10.24,-1.42,3.03,0.06,-0.16,0.09,547.0,543.0,530.0,566.0,573.0,5,2
685,11.39,1.34,4.02,-0.03,-0.4,0.29,548.0,543.0,530.0,566.0,574.0,5,2
686,11.99,1.12,4.05,-0.02,-0.16,0.04,547.0,542.0,530.0,567.0,574.0,5,2
687,9.61,-0.09,1.77,-0.1,-0.17,-0.25,547.0,542.0,530.0,567.0,573.0,5,2
688,10.07,-4.13,1.02,-0.35,-0.16,-0.31,547.0,543.0,530.0,566.0,574.0,5,2
689,8.18,-8.46,-0.55,-0.43,-0.34,-0.42,546.0,541.0,529.0,566.0,573.0,5,2
690,6.29,-10.78,-0.76,0.07,0.05,0.05,545.0,541.0,529.0,565.0,573.0,5,2
691,6.73,-7.21,-0.31,0.21,0.04,0.26,546.0,540.0,529.0,565.0,572.0,5,2
692,9.96,-5.61,0.34,0.2,0.25,0.39,545.0,541.0,529.0,566.0,572.0,5,2
693,9.3,-1.37,1.59,0.05,-0.0,0.21,545.0,541.0,530.0,565.0,573.0,5,2
694,12.11,2.1,3.3,0.05,-0.2,0.42,547.0,542.0,530.0,566.0,572.0,5,2
695,11.71,1.37,4.7,-0.06,-0.13,-0.04,548.0,542.0,531.0,566.0,573.0,5,2
696,9.66,-0.45,1.89,-0.2,-0.24,-0.3,547.0,543.0,531.0,567.0,573.0,5,2
697,8.97,-5.35,-0.06,-0.37,0.05,-0.33,547.0,542.0,530.0,566.0,573.0,5,2
698,7.36,-10.69,-1.64,-0.34,-0.07,-0.26,546.0,542.0,530.0,566.0,574.0,5,2
699,5.47,-8.33,-0.44,0.22,0.2,0.27,547.0,542.0,529.0,566.0,573.0,5,2
700,8.09,-6.59,-0.01,0.18,0.18,0.36,546.0,542.0,530.0,566.0,573.0,5,2
701,9.86,-3.86,1.73,0.36,0.27,0.38,547.0,542.0,530.0,566.0,574.0,5,2
702,12.24,0.94,3.44,0.13,0.03,0.15,548.0,542.0,531.0,566.0,573.0,5,2
703,9.48,3.61,3.0,0.19,0.08,-0.05,547.0,542.0,532.0,566.0,574.0,5,2
704,11.19,0.98,3.58,-0.07,-0.16,-0.21,548.0,542.0,531.0,566.0,573.0,5,2
705,10.12,-2.98,1.14,-0.28,0.02,-0.24,547.0,542.0,531.0,567.0,574.0,5,2
706,8.34,-3.88,-0.43,-0.37,-0.25,-0.38,546.0,542.0,531.0,566.0,574.0,5,2
707,6.34,-10.81,-1.37,-0.02,0.09,-0.05,547.0,543.0,530.0,566.0,573.0,5,2
708,5.93,-8.29,0.25,0.33,0.24,0.4,547.0,542.0,530.0,566.0,573.0,5,2
709,9.41,-6.64,1.1,0.01,-0.24,0.25,547.0,542.0,530.0,566.0,573.0,5,2
710,7.51,-2.15,0.95,0.26,0.41,0.36,548.0,542.0,531.0,566.0,573.0,5,2
711,11.79,2.34,3.24,0.11,0.04,0.05,547.0,543.0,531.0,567.0,574.0,5,2
712,9.0,3.19,3.84,0.04,0.09,0.15,547.0,543.0,531.0,566.0,574.0,5,2
713,10.51,0.12,3.09,-0.02,-0.18,-0.19,547.0,543.0,531.0,567.0,573.0,5,2
714,9.16,-3.19,1.42,-0.21,0.07,-0.22,548.0,543.0,531.0,567.0,573.0,5,2
715,8.49,-3.44,-0.7,-0.72,-0.19,-0.42,547.0,542.0,530.0,567.0,573.0,5,2
716,6.01,-10.83,-0.96,0.14,0.3,0.09,546.0,542.0,530.0,566.0,574.0,5,2
717,6.22,-7.77,0.39,0.12,-0.04,0.25,547.0,542.0,530.0,567.0,573.0,5,2
718,10.41,-5.96,1.4,0.11,-0.01,0.32,548.0,542.0,530.0,566.0,573.0,5,2
719,11.13,-0.72,2.87,-0.1,-0.3,0.13,546.0,542.0,531.0,566.0,573.0,5,2
720,9.51,1.52,3.64,0.03,-0.15,0.72,548.0,542.0,531.0,565.0,574.0,5,2
721,11.95,0.04,4.2,-0.05,-0.23,-0.09,548.0,543.0,532.0,567.0,574.0,5,2
722,9.57,-1.66,1.28,-0.25,-0.14,-0.3,547.0,543.0,531.0,567.0,574.0,5,2
723,8.93,-5.77,0.92,-0.38,-0.03,-0.35,547.0,543.0,531.0,566.0,574.0,5,2
724,7.2,-9.36,-0.85,-0.32,-0.1,-0.27,547.0,543.0,531.0,566.0,573.0,5,2
725,6.75,-8.32,-0.3,0.21,0.3,0.27,546.0,541.0,531.0,567.0,574.0,5,2
726,7.39,-7.28,0.14,0.12,0.11,0.36,547.0,542.0,530.0,567.0,574.0,5,2
727,9.69,-4.01,1.54,0.13,-0.06,0.25,547.0,543.0,531.0,566.0,574.0,5,2
728,11.75,1.27,3.8,0.12,-0.01,0.16,548.0,543.0,531.0,566.0,574.0,5,2
729,5.33,2.9,3.26,0.23,0.32,-0.04,548.0,543.0,531.0,567.0,574.0,5,2
730,10.3,0.81,3.11,0.11,-0.08,-0.22,549.0,543.0,531.0,566.0,575.0,5,2
731,10.12,-2.75,1.54,-0.27,-0.07,-0.27,548.0,543.0,531.0,567.0,574.0,5,2
732,8.24,-7.04,-0.31,-0.5,-0.26,-0.45,547.0,542.0,531.0,567.0,574.0,5,2
733,5.94,-10.94,-1.49,-0.1,0.21,-0.05,547.0,542.0,531.0,567.0,574.0,5,2
734,5.16,-8.48,-0.25,0.28,0.25,0.36,547.0,542.0,531.0,567.0,574.0,5,2
735,9.9,-6.52,0.91,-0.13,-0.26,0.28,548.0,543.0,531.0,567.0,574.0,5,2
736,7.78,-0.79,2.06,0.17,-0.08,0.23,547.0,542.0,531.0,567.0,574.0,5,2
737,11.64,3.6,3.96,0.18,0.02,0.11,548.0,542.0,531.0,567.0,574.0,5,2
738,12.0,0.96,4.45,-0.03,0.01,0.08,547.0,543.0,532.0,566.0,575.0,5,2
739,8.72,-0.14,2.38,-0.14,-0.19,-0.29,547.0,544.0,532.0,567.0,575.0,5,2
740,9.56,-4.4,1.38,-0.29,0.01,-0.32,548.0,542.0,531.0,567.0,574.0,5,2
741,6.38,-8.78,-1.02,-0.13,-0.05,-0.44,547.0,543.0,532.0,567.0,574.0,5,2
742,6.18,-9.83,-0.29,0.04,0.2,0.18,546.0,542.0,531.0,566.0,574.0,5,2
743,5.71,-7.47,0.23,0.1,-0.01,0.29,547.0,542.0,532.0,567.0,575.0,5,2
744,11.67,-7.17,2.89,0.23,0.03,0.32,548.0,543.0,531.0,566.0,575.0,5,2
745,11.96,-1.07,2.7,-0.13,-0.1,0.25,548.0,543.0,531.0,566.0,575.0,5,2
746,12.27,1.94,4.38,0.09,-0.25,0.72,547.0,543.0,532.0,566.0,575.0,5,2
747,12.49,0.08,4.28,-0.09,0.06,-0.05,548.0,543.0,532.0,567.0,575.0,5,2
748,8.4,-0.11,2.3,-0.22,-0.3,-0.31,548.0,542.0,532.0,567.0,575.0,5,2
749,9.6,-4.36,1.48,-0.39,-0.22,-0.39,547.0,543.0,532.0,566.0,575.0,5,2
750,9.23,-3.74,1.53,-0.08,-0.04,0.0,545.0,542.0,536.0,570.0,574.0,6,2
751,8.8,-3.33,1.5,0.02,0.04,0.04,544.0,541.0,535.0,570.0,573.0,6,2
752,9.12,-3.56,1.74,-0.12,-0.06,0.03,541.0,541.0,534.0,567.0,572.0,6,2
753,9.04,-3.56,1.88,-0.25,-0.17,0.01,538.0,541.0,532.0,563.0,571.0,6,2
754,8.87,-3.52,1.49,-0.16,-0.23,-0.08,538.0,542.0,532.0,562.0,570.0,6,2
755,9.48,-4.18,1.61,0.14,-0.1,0.04,537.0,541.0,532.0,560.0,568.0,6,2
756,8.88,-3.47,1.3,0.28,0.39,0.08,537.0,543.0,533.0,560.0,569.0,6,2
757,9.83,-2.73,1.11,1.02,0.65,0.12,538.0,542.0,535.0,559.0,568.0,6,2
758,8.54,-3.74,3.55,0.19,-0.24,-0.06,538.0,543.0,535.0,560.0,568.0,6,2
759,9.69,-1.89,1.38,0.16,-0.02,-0.08,537.0,544.0,536.0,560.0,569.0,6,2
760,8.95,-2.97,1.33,-0.13,-0.35,-0.29,537.0,545.0,536.0,561.0,570.0,6,2
761,7.76,-5.68,-0.37,-0.14,-0.05,-0.08,538.0,545.0,536.0,561.0,570.0,6,2
762,6.94,-7.94,0.21,0.0,0.29,0.14,537.0,546.0,536.0,561.0,569.0,6,2
763,7.89,-6.05,1.66,0.24,0.37,0.35,538.0,546.0,537.0,562.0,569.0,6,2
764,10.54,-2.5,2.17,0.01,-0.03,0.15,537.0,546.0,537.0,562.0,570.0,6,2
765,10.33,1.53,3.73,-0.08,-0.15,-0.03,539.0,545.0,538.0,562.0,570.0,6,2
766,10.88,0.98,3.6,-0.03,0.04,-0.04,538.0,545.0,537.0,562.0,570.0,6,2
767,10.56,-0.72,2.17,-0.25,-0.21,-0.24,538.0,545.0,537.0,563.0,570.0,6,2
768,9.61,-3.82,1.34,-0.26,-0.01,-0.22,538.0,545.0,537.0,563.0,570.0,6,2
769,7.65,-7.83,0.23,-0.21,0.1,-0.13,537.0,545.0,538.0,562.0,570.0,6,2
770,7.06,-8.77,0.82,0.06,0.18,0.16,536.0,546.0,538.0,563.0,570.0,6,2
771,6.59,-7.81,0.66,0.43,0.08,0.28,535.0,546.0,538.0,562.0,570.0,6,2
772,8.13,-4.8,0.66,-0.02,0.16,0.32,536.0,545.0,538.0,563.0,570.0,6,2
773,10.69,-1.66,3.13,-0.07,0.11,0.33,536.0,546.0,538.0,563.0,570.0,6,2
774,11.87,2.9,4.72,0.03,-0.09,-0.0,536.0,546.0,538.0,564.0,570.0,6,2
775,10.82,0.42,4.51,0.12,0.2,0.0,536.0,545.0,538.0,563.0,570.0,6,2
776,10.1,-1.21,2.85,-0.1,-0.1,-0.23,537.0,546.0,538.0,564.0,570.0,6,2
777,8.41,-4.89,1.27,-0.15,0.07,-0.24,536.0,546.0,538.0,564.0,570.0,6,2
778,6.82,-9.56,-0.06,-0.01,0.36,-0.02,537.0,545.0,538.0,564.0,569.0,6,2
779,6.68,-7.67,0.96,0.11,0.08,0.16,538.0,546.0,538.0,565.0,569.0,6,2
780,6.61,-5.64,0.92,0.02,0.05,0.28,536.0,545.0,539.0,564.0,570.0,6,2
781,10.26,-4.45,2.82,0.0,0.18,0.34,536.0,546.0,538.0,564.0,570.0,6,2
782,9.64,0.25,3.97,-0.13,-0.25,0.0,537.0,545.0,538.0,565.0,570.0,6,2
783,9.27,1.43,3.83,0.06,-0.17,-0.15,538.0,546.0,539.0,565.0,570.0,6,2
784,10.16,0.43,3.77,0.02,-0.15,-0.14,537.0,546.0,539.0,564.0,570.0,6,2
785,9.61,-2.73,2.41,-0.18,-0.06,-0.22,535.0,546.0,539.0,564.0,570.0,6,2
786,7.6,-6.83,0.72,-0.24,-0.0,-0.3,535.0,547.0,538.0,565.0,569.0,6,2
787,6.44,-10.61,0.26,0.06,0.22,-0.03,535.0,547.0,539.0,565.0,569.0,6,2
788,6.08,-7.36,0.63,0.14,-0.12,0.13,535.0,546.0,539.0,565.0,569.0,6,2
789,7.31,-5.5,1.01,0.15,0.31,0.39,536.0,547.0,538.0,565.0,569.0,6,2
790,10.9,-3.98,3.23,-0.01,0.23,0.33,536.0,546.0,539.0,564.0,570.0,6,2
791,12.15,0.54,5.37,-0.18,-0.41,-0.15,537.0,548.0,539.0,565.0,569.0,6,2
792,8.69,0.73,4.39,0.07,0.18,-0.09,537.0,547.0,539.0,565.0,569.0,6,2
793,10.12,-0.16,3.76,-0.09,-0.22,-0.21,538.0,547.0,539.0,565.0,569.0,6,2
794,9.05,-2.41,2.51,-0.22,-0.16,-0.27,537.0,547.0,539.0,566.0,569.0,6,2
795,7.86,-5.88,1.49,-0.3,-0.19,-0.34,537.0,547.0,539.0,566.0,569.0,6,2
796,6.87,-9.43,0.24,-0.1,0.09,-0.13,537.0,546.0,539.0,565.0,569.0,6,2
797,6.66,-8.85,1.34,0.18,0.05,0.14,537.0,546.0,538.0,565.0,570.0,6,2
798,6.58,-6.25,1.17,0.05,0.07,0.26,537.0,547.0,539.0,565.0,570.0,6,2
799,10.17,-3.95,3.0,0.06,0.36,0.4,537.0,546.0,539.0,565.0,570.0,6,2
800,9.65,0.61,4.15,-0.09,-0.15,0.0,537.0,547.0,539.0,565.0,570.0,6,2
801,8.47,0.29,5.2,0.17,0.27,-0.11,538.0,547.0,540.0,565.0,570.0,6,2
802,9.88,0.14,3.76,-0.06,-0.33,-0.2,538.0,547.0,540.0,566.0,570.0,6,2
803,9.92,-2.83,2.87,-0.08,-0.06,-0.21,537.0,546.0,539.0,566.0,569.0,6,2
804,7.66,-7.12,0.9,-0.29,-0.1,-0.34,537.0,547.0,539.0,566.0,570.0,6,2
805,6.64,-9.94,0.09,-0.05,-0.03,-0.09,537.0,547.0,539.0,566.0,569.0,6,2
806,5.88,-7.42,1.41,0.24,0.14,0.25,536.0,547.0,538.0,565.0,569.0,6,2
807,8.13,-5.66,1.39,-0.02,0.15,0.32,537.0,546.0,539.0,566.0,570.0,6,2
808,10.03,-3.0,4.59,-0.17,-0.07,0.19,537.0,547.0,539.0,566.0,570.0,6,2
809,8.98,1.01,4.33,0.05,0.1,0.38,538.0,547.0,539.0,566.0,570.0,6,2
810,9.64,-0.57,6.11,0.02,-0.12,-0.03,538.0,547.0,540.0,565.0,570.0,6,2
811,10.31,0.05,3.34,-0.17,-0.41,-0.29,540.0,547.0,539.0,566.0,570.0,6,2
812,8.7,-3.45,2.48,-0.14,-0.07,-0.19,537.0,547.0,540.0,566.0,570.0,6,2
813,7.17,-9.3,0.61,-0.23,-0.07,-0.23,538.0,547.0,539.0,566.0,570.0,6,2
814,8.52,-7.87,1.3,-0.01,-0.14,0.21,537.0,547.0,539.0,566.0,570.0,6,2
815,5.64,-6.58,0.66,-0.0,-0.12,0.17,538.0,546.0,539.0,566.0,570.0,6,2
816,10.74,-5.07,2.8,0.1,0.46,0.47,537.0,547.0,539.0,566.0,570.0,6,2
817,9.73,-0.04,3.91,-0.15,-0.36,-0.02,538.0,546.0,539.0,566.0,570.0,6,2
818,10.98,2.87,4.27,0.09,-0.06,-0.06,538.0,547.0,539.0,566.0,571.0,6,2
819,10.53,0.36,4.26,0.0,-0.22,-0.19,538.0,547.0,540.0,566.0,570.0,6,2
820,9.83,-2.42,2.61,-0.13,-0.2,-0.24,537.0,547.0,539.0,567.0,570.0,6,2
821,8.43,-6.46,1.5,-0.31,-0.3,-0.42,536.0,547.0,539.0,567.0,570.0,6,2
822,9.04,-7.84,-0.49,-0.12,-0.38,-0.56,537.0,547.0,539.0,566.0,570.0,6,2
823,5.71,-8.86,0.42,0.11,-0.0,0.18,537.0,548.0,539.0,566.0,569.0,6,2
824,7.29,-6.26,1.02,0.08,0.12,0.36,537.0,548.0,539.0,567.0,570.0,6,2
825,10.75,-4.47,3.49,0.04,0.35,0.46,537.0,547.0,539.0,566.0,570.0,6,2
826,10.93,1.71,4.29,-0.06,-0.2,0.06,539.0,547.0,540.0,566.0,570.0,6,2
827,7.96,2.94,5.44,0.16,0.34,0.08,538.0,547.0,540.0,567.0,571.0,6,2
828,10.26,0.38,3.68,-0.0,-0.5,-0.28,538.0,547.0,540.0,567.0,571.0,6,2
829,9.42,-3.23,2.29,-0.21,-0.18,-0.34,538.0,548.0,539.0,567.0,570.0,6,2
830,7.64,-7.24,0.79,-0.38,-0.13,-0.43,536.0,547.0,540.0,567.0,570.0,6,2
831,6.33,-8.7,0.06,-0.28,-0.17,-0.29,536.0,549.0,539.0,566.0,570.0,6,2
832,5.95,-7.92,0.0,0.09,0.14,0.19,537.0,548.0,539.0,567.0,571.0,6,2
833,7.13,-6.67,0.76,0.06,0.12,0.37,538.0,547.0,539.0,567.0,570.0,6,2
834,10.16,-4.63,3.06,0.11,0.3,0.44,538.0,547.0,539.0,566.0,571.0,6,2
835,10.17,1.17,3.92,-0.04,-0.21,-0.02,539.0,548.0,540.0,566.0,570.0,6,2
836,11.0,2.43,4.13,0.29,0.2,0.05,539.0,548.0,540.0,567.0,572.0,6,2
837,10.37,-0.07,4.15,0.1,-0.16,-0.12,538.0,547.0,540.0,567.0,571.0,6,2
838,9.12,-2.84,2.04,-0.12,-0.14,-0.28,538.0,548.0,539.0,567.0,571.0,6,2
839,8.58,-5.88,0.81,-0.32,-0.12,-0.3,539.0,548.0,540.0,567.0,571.0,6,2
840,6.68,-9.19,0.65,-0.16,-0.05,-0.12,538.0,547.0,540.0,566.0,571.0,6,2
841,6.4,-8.49,1.11,0.16,0.1,0.2,538.0,547.0,539.0,566.0,571.0,6,2
842,7.16,-6.63,0.9,-0.02,0.01,0.27,538.0,548.0,540.0,567.0,571.0,6,2
843,10.2,-4.49,2.9,-0.07,0.21,0.28,538.0,547.0,539.0,566.0,572.0,6,2
844,10.08,1.09,3.54,-0.04,-0.02,0.08,539.0,548.0,540.0,567.0,571.0,6,2
845,10.29,2.69,3.35,0.31,0.1,-0.01,538.0,547.0,540.0,566.0,572.0,6,2
846,10.39,0.91,3.82,0.03,-0.34,-0.22,539.0,547.0,540.0,568.0,571.0,6,2
847,9.5,-2.48,2.31,-0.15,-0.13,-0.29,538.0,548.0,540.0,567.0,571.0,6,2
848,8.26,-6.03,1.44,-0.33,-0.17,-0.42,538.0,548.0,540.0,567.0,571.0,6,2
849,6.35,-9.52,-0.34,-0.18,0.01,-0.21,538.0,548.0,540.0,567.0,571.0,6,2
850,5.75,-8.76,0.29,0.2,0.12,0.27,538.0,548.0,539.0,567.0,570.0,6,2
851,7.32,-6.47,0.28,-0.0,-0.12,0.34,538.0,547.0,540.0,566.0,571.0,6,2
852,10.87,-3.3,3.45,-0.05,0.16,0.38,538.0,547.0,540.0,567.0,570.0,6,2
853,10.79,2.17,4.31,-0.06,-0.18,0.0,539.0,548.0,540.0,567.0,571.0,6,2
854,11.15,0.97,4.65,0.12,0.08,-0.04,539.0,548.0,540.0,567.0,572.0,6,2
855,9.87,-0.7,2.97,-0.01,-0.18,-0.19,538.0,548.0,540.0,567.0,571.0,6,2
856,9.25,-3.98,2.13,-0.11,0.04,-0.24,538.0,548.0,540.0,567.0,572.0,6,2
857,8.23,-7.11,0.8,-0.23,-0.13,-0.35,538.0,548.0,540.0,567.0,572.0,6,2
858,5.92,-9.26,-0.3,-0.01,0.01,-0.07,538.0,548.0,540.0,567.0,572.0,6,2
859,5.45,-7.87,0.75,0.19,0.2,0.32,538.0,548.0,540.0,567.0,572.0,6,2
860,8.7,-5.74,1.29,-0.08,0.09,0.31,538.0,547.0,540.0,567.0,571.0,6,2
861,10.84,-2.35,3.95,0.0,0.01,0.32,538.0,548.0,540.0,567.0,572.0,6,2
862,11.55,2.65,4.8,-0.1,-0.27,0.39,539.0,548.0,540.0,567.0,572.0,6,2
863,10.97,1.08,4.71,0.01,-0.0,-0.03,538.0,547.0,540.0,567.0,572.0,6,2
864,10.11,-0.66,3.09,-0.06,-0.16,-0.25,539.0,547.0,540.0,567.0,572.0,6,2
865,9.44,-3.83,2.06,-0.18,-0.1,-0.32,540.0,548.0,541.0,568.0,572.0,6,2
866,8.07,-7.18,0.42,-0.27,-0.2,-0.39,538.0,547.0,540.0,567.0,572.0,6,2
867,5.65,-9.45,-0.13,-0.06,-0.04,-0.07,538.0,548.0,541.0,567.0,572.0,6,2
868,6.38,-7.75,0.48,0.22,0.21,0.33,538.0,548.0,540.0,567.0,572.0,6,2
869,8.33,-6.2,1.1,0.03,0.08,0.4,538.0,548.0,540.0,567.0,572.0,6,2
870,10.1,-3.0,3.08,-0.1,-0.06,0.35,538.0,548.0,540.0,568.0,572.0,6,2
871,10.37,0.9,3.93,-0.05,0.1,0.15,538.0,548.0,541.0,567.0,572.0,6,2
872,10.96,0.59,4.99,-0.01,0.02,-0.08,539.0,547.0,541.0,568.0,572.0,6,2
873,10.38,-0.17,3.16,-0.06,-0.25,-0.22,540.0,548.0,540.0,567.0,572.0,6,2
874,9.45,-3.38,2.14,-0.15,0.02,-0.28,539.0,548.0,541.0,567.0,571.0,6,2
875,7.9,-7.02,0.66,-0.32,-0.21,-0.44,538.0,549.0,541.0,568.0,572.0,6,2
876,5.74,-9.71,-0.22,-0.08,-0.09,-0.14,539.0,549.0,540.0,568.0,573.0,6,2
877,5.44,-7.87,0.45,0.25,0.25,0.45,538.0,548.0,541.0,567.0,572.0,6,2
878,8.7,-6.0,0.82,-0.11,-0.06,0.29,538.0,548.0,540.0,567.0,573.0,6,2
879,10.8,-2.85,3.59,-0.04,0.3,0.31,538.0,549.0,540.0,567.0,572.0,6,2
880,10.79,2.77,3.92,-0.12,0.1,0.02,538.0,549.0,540.0,568.0,572.0,6,2
881,10.36,0.8,4.37,0.05,0.03,-0.04,539.0,548.0,541.0,567.0,572.0,6,2
882,10.19,-0.62,2.93,-0.1,-0.23,-0.23,539.0,549.0,541.0,568.0,573.0,6,2
883,9.25,-3.74,1.85,-0.24,-0.15,-0.35,538.0,549.0,540.0,568.0,572.0,6,2
884,10.03,-11.1,1.16,-0.22,-0.86,-0.33,538.0,550.0,539.0,568.0,572.0,6,2
885,6.38,-10.26,-0.05,0.01,0.02,-0.02,538.0,548.0,540.0,567.0,572.0,6,2
886,5.39,-7.37,0.52,0.26,0.2,0.34,537.0,549.0,539.0,567.0,572.0,6,2
887,9.23,-5.51,1.0,0.01,0.24,0.41,538.0,549.0,540.0,567.0,572.0,6,2
888,11.74,-2.75,3.77,-0.06,-0.1,0.25,537.0,548.0,541.0,568.0,572.0,6,2
889,14.84,3.78,4.82,0.0,0.77,-0.21,538.0,549.0,540.0,567.0,573.0,6,2
890,11.68,1.09,4.54,0.03,0.05,0.06,538.0,549.0,541.0,568.0,572.0,6,2
891,9.89,-1.17,3.13,-0.0,-0.12,-0.19,539.0,548.0,540.0,569.0,573.0,6,2
892,8.92,-4.05,2.09,-0.08,-0.05,-0.3,538.0,548.0,541.0,568.0,572.0,6,2
893,7.98,-7.24,0.11,-0.27,-0.15,-0.36,537.0,549.0,541.0,567.0,572.0,6,2
894,6.32,-9.08,-0.47,-0.03,-0.01,-0.01,538.0,550.0,540.0,568.0,572.0,6,2
895,5.57,-7.2,0.73,0.27,0.3,0.46,538.0,548.0,541.0,567.0,573.0,6,2
896,8.83,-5.56,1.48,-0.08,0.03,0.34,538.0,549.0,540.0,568.0,573.0,6,2
897,11.23,-1.98,3.7,-0.17,-0.18,0.14,538.0,549.0,541.0,568.0,573.0,6,2
898,9.38,6.35,3.96,-0.12,-0.3,0.34,539.0,550.0,540.0,568.0,573.0,6,2
899,11.34,0.21,4.85,0.1,0.06,-0.07,539.0,549.0,541.0,568.0,573.0,6,2
900,9.06,-3.46,1.87,-0.02,-0.02,0.01,541.0,550.0,541.0,569.0,573.0,7,2
901,8.88,-3.45,2.03,-0.05,-0.04,-0.0,541.0,550.0,541.0,569.0,573.0,7,2
902,9.13,-3.62,1.87,-0.06,-0.06,-0.0,541.0,550.0,541.0,569.0,573.0,7,2
903,8.77,-3.51,1.92,-0.0,-0.01,0.01,540.0,550.0,541.0,570.0,573.0,7,2
904,8.71,-3.57,2.55,-0.05,-0.14,-0.03,540.0,550.0,541.0,568.0,573.0,7,2
905,8.87,-3.43,2.08,-0.1,-0.13,-0.06,538.0,550.0,539.0,568.0,572.0,7,2
906,10.07,-3.8,1.33,-0.02,-0.13,-0.04,537.0,549.0,539.0,568.0,572.0,7,2
907,8.77,-2.87,0.95,0.09,0.02,0.09,537.0,551.0,539.0,568.0,571.0,7,2
908,9.08,-3.26,1.5,-0.0,-0.01,0.1,537.0,550.0,540.0,567.0,572.0,7,2
909,9.17,-3.51,1.83,-0.08,-0.06,0.01,537.0,550.0,540.0,567.0,572.0,7,2
910,10.61,-1.33,2.4,-0.03,0.02,0.0,536.0,551.0,541.0,567.0,571.0,7,2
911,9.39,-0.83,2.19,-0.06,-0.05,-0.12,535.0,551.0,541.0,567.0,571.0,7,2
912,9.06,-4.07,0.91,-0.11,0.2,-0.08,536.0,550.0,540.0,567.0,570.0,7,2
913,7.77,-8.45,0.51,-0.09,0.03,-0.09,535.0,551.0,540.0,567.0,570.0,7,2
914,6.76,-7.81,0.95,0.26,0.17,0.17,535.0,551.0,540.0,565.0,572.0,7,2
915,7.62,-5.69,0.47,0.05,-0.09,0.16,536.0,550.0,540.0,565.0,570.0,7,2
916,9.34,-2.31,1.75,0.06,0.39,0.33,536.0,551.0,541.0,567.0,570.0,7,2
917,11.82,1.98,4.62,-0.09,-0.04,0.1,536.0,551.0,542.0,567.0,571.0,7,2
918,9.79,1.6,3.79,-0.06,0.3,-0.1,537.0,553.0,542.0,568.0,571.0,7,2
919,10.19,-1.06,2.89,-0.22,-0.16,-0.23,537.0,551.0,542.0,567.0,571.0,7,2
920,8.63,-4.01,1.42,-0.26,0.06,-0.29,536.0,552.0,542.0,567.0,571.0,7,2
921,7.85,-8.84,-0.21,-0.23,0.02,-0.23,536.0,552.0,541.0,567.0,572.0,7,2
922,7.93,-8.62,0.47,0.27,0.09,0.16,536.0,550.0,542.0,567.0,572.0,7,2
923,6.86,-6.21,0.79,0.16,0.27,0.3,537.0,551.0,541.0,566.0,572.0,7,2
924,9.57,-4.46,1.68,-0.09,-0.08,0.28,536.0,551.0,542.0,567.0,572.0,7,2
925,10.66,-0.69,3.51,-0.09,0.03,0.22,537.0,551.0,541.0,567.0,572.0,7,2
926,11.11,9.55,5.16,0.12,0.5,-0.07,537.0,552.0,541.0,568.0,572.0,7,2
927,10.97,0.13,3.93,-0.02,-0.08,-0.06,538.0,551.0,542.0,568.0,572.0,7,2
928,9.72,-1.9,2.79,-0.11,-0.1,-0.27,537.0,551.0,542.0,567.0,573.0,7,2
929,8.5,-4.95,1.17,-0.25,-0.06,-0.38,537.0,551.0,542.0,568.0,572.0,7,2
930,6.78,-9.04,-1.08,-0.07,0.1,-0.41,537.0,551.0,541.0,568.0,572.0,7,2
931,6.04,-8.06,1.14,0.22,0.14,0.17,536.0,551.0,541.0,568.0,572.0,7,2
932,6.74,-6.05,0.46,0.13,0.23,0.37,537.0,551.0,541.0,567.0,572.0,7,2
933,9.5,-4.63,1.94,0.03,0.15,0.42,536.0,551.0,542.0,568.0,573.0,7,2
934,10.64,-0.57,4.07,-0.01,-0.06,0.18,537.0,551.0,541.0,567.0,572.0,7,2
935,12.06,3.95,4.87,-0.07,-0.93,0.15,538.0,551.0,542.0,568.0,573.0,7,2
936,10.52,0.0,3.87,0.01,-0.03,-0.12,536.0,552.0,542.0,568.0,573.0,7,2
937,9.4,-1.65,2.65,-0.13,-0.06,-0.25,537.0,552.0,542.0,568.0,573.0,7,2
938,8.47,-4.79,1.78,-0.25,-0.15,-0.37,537.0,551.0,542.0,568.0,573.0,7,2
939,6.7,-7.29,0.17,-0.18,-0.16,-0.29,537.0,551.0,541.0,568.0,572.0,7,2
940,7.19,-9.65,1.2,0.17,0.09,0.16,537.0,552.0,541.0,568.0,573.0,7,2
941,5.97,-6.52,0.72,0.0,-0.04,0.22,536.0,551.0,542.0,568.0,573.0,7,2
942,9.83,-4.67,1.75,0.07,0.31,0.46,538.0,551.0,542.0,568.0,573.0,7,2
943,10.6,-0.74,3.88,-0.08,-0.22,0.09,538.0,552.0,541.0,568.0,573.0,7,2
944,13.91,3.74,5.49,0.07,0.03,0.0,539.0,552.0,542.0,568.0,573.0,7,2
945,11.05,0.13,3.75,0.0,-0.12,-0.09,538.0,551.0,542.0,568.0,573.0,7,2
946,9.65,-1.79,2.62,-0.16,-0.08,-0.27,538.0,551.0,543.0,567.0,573.0,7,2
947,8.54,-4.87,1.58,-0.27,-0.12,-0.37,538.0,552.0,541.0,568.0,573.0,7,2
948,7.12,-8.09,0.14,-0.25,-0.12,-0.31,538.0,551.0,542.0,568.0,574.0,7,2
949,8.23,-7.84,0.61,0.09,0.08,0.18,537.0,553.0,542.0,568.0,573.0,7,2
950,6.08,-6.78,0.57,0.04,-0.08,0.23,537.0,551.0,542.0,568.0,573.0,7,2
951,9.85,-4.8,1.27,0.11,0.32,0.47,537.0,551.0,541.0,568.0,573.0,7,2
952,11.12,-0.98,3.95,-0.03,-0.14,0.16,537.0,551.0,542.0,568.0,574.0,7,2
953,15.6,7.44,5.14,0.16,-1.03,0.03,538.0,551.0,542.0,568.0,573.0,7,2
954,11.73,-0.2,4.37,0.06,-0.06,-0.03,538.0,551.0,542.0,569.0,573.0,7,2
955,9.67,-1.07,2.53,-0.02,0.03,-0.2,538.0,552.0,542.0,568.0,574.0,7,2
956,9.45,-4.27,1.72,-0.23,-0.07,-0.34,539.0,551.0,542.0,569.0,573.0,7,2
957,7.62,-7.02,0.83,-0.24,-0.16,-0.38,537.0,551.0,542.0,568.0,574.0,7,2
958,7.03,-9.45,0.54,0.09,0.09,-0.02,537.0,551.0,542.0,569.0,574.0,7,2
959,6.15,-7.26,0.82,0.21,0.06,0.21,536.0,552.0,542.0,568.0,574.0,7,2
960,7.89,-6.0,0.79,0.12,0.13,0.38,537.0,551.0,541.0,569.0,574.0,7,2
961,9.45,-2.88,1.9,0.02,0.22,0.41,537.0,551.0,542.0,568.0,573.0,7,2
962,12.6,0.37,5.03,0.05,0.09,0.2,537.0,551.0,542.0,568.0,574.0,7,2
963,5.2,0.16,4.43,0.19,0.24,-0.06,537.0,552.0,542.0,569.0,574.0,7,2
964,10.26,0.58,3.04,0.01,-0.12,-0.19,538.0,552.0,542.0,569.0,574.0,7,2
965,9.58,-2.48,1.86,-0.13,0.04,-0.23,538.0,551.0,542.0,569.0,573.0,7,2
966,8.14,-6.19,1.74,-0.26,-0.1,-0.36,538.0,551.0,542.0,569.0,574.0,7,2
967,6.0,-1.87,0.23,-0.11,-0.25,-0.44,538.0,551.0,542.0,569.0,574.0,7,2
968,6.81,-7.17,0.78,0.15,0.09,0.17,537.0,552.0,542.0,568.0,573.0,7,2
969,6.65,-5.9,0.74,0.01,0.0,0.2,538.0,552.0,542.0,569.0,574.0,7,2
970,9.48,-4.17,1.87,0.03,0.19,0.4,537.0,551.0,542.0,568.0,574.0,7,2
971,10.55,-0.23,3.49,0.03,-0.02,0.17,538.0,551.0,542.0,569.0,574.0,7,2
972,8.33,2.82,3.73,0.02,-0.21,0.06,538.0,551.0,542.0,568.0,574.0,7,2
973,10.95,0.04,3.45,-0.03,-0.08,-0.14,538.0,552.0,542.0,569.0,574.0,7,2
974,9.53,-1.67,2.2,-0.14,-0.01,-0.23,539.0,553.0,542.0,569.0,574.0,7,2
975,8.66,-5.06,2.01,-0.26,-0.13,-0.35,538.0,551.0,543.0,569.0,574.0,7,2
976,7.17,-7.71,0.9,-0.2,-0.16,-0.3,538.0,552.0,542.0,569.0,574.0,7,2
977,9.18,-6.75,0.96,-0.01,-0.04,0.15,538.0,552.0,542.0,569.0,574.0,7,2
978,6.05,-6.42,0.74,0.1,0.15,0.31,537.0,551.0,542.0,569.0,574.0,7,2
979,9.75,-5.37,1.38,0.05,0.18,0.46,538.0,551.0,542.0,569.0,574.0,7,2
980,10.35,-2.62,3.56,0.02,-0.06,0.23,539.0,551.0,542.0,569.0,574.0,7,2
981,10.58,8.26,3.91,-0.03,-0.18,0.0,538.0,552.0,543.0,569.0,573.0,7,2
982,10.48,-0.82,4.64,0.12,0.2,0.12,537.0,552.0,543.0,569.0,573.0,7,2
983,9.77,-0.5,2.89,-0.03,-0.18,-0.18,538.0,551.0,543.0,569.0,574.0,7,2
984,9.5,-3.44,2.38,-0.13,-0.01,-0.23,538.0,552.0,543.0,569.0,574.0,7,2
985,8.28,-6.22,1.36,-0.32,-0.25,-0.42,537.0,551.0,542.0,569.0,573.0,7,2
986,6.43,-18.91,0.77,-0.33,-0.78,0.41,539.0,552.0,543.0,569.0,574.0,7,2
987,5.97,-8.03,0.85,0.22,0.27,0.22,538.0,552.0,543.0,569.0,574.0,7,2
988,7.28,-6.27,0.95,0.02,0.1,0.34,538.0,552.0,542.0,569.0,573.0,7,2
989,10.58,-4.52,2.4,0.1,0.17,0.4,538.0,552.0,542.0,569.0,574.0,7,2
990,10.11,0.82,3.92,0.02,0.03,0.15,539.0,551.0,543.0,569.0,573.0,7,2
991,11.26,3.29,3.85,0.12,-0.08,-0.05,539.0,552.0,542.0,569.0,574.0,7,2
992,9.86,0.07,3.44,0.04,-0.1,-0.1,539.0,552.0,543.0,569.0,574.0,7,2
993,9.98,-2.01,2.64,-0.11,-0.02,-0.21,538.0,551.0,543.0,569.0,573.0,7,2
994,8.47,-4.95,1.84,-0.3,-0.31,-0.42,538.0,552.0,543.0,569.0,574.0,7,2
995,7.39,-7.25,0.94,-0.21,-0.1,-0.27,538.0,552.0,543.0,569.0,573.0,7,2
996,6.29,-8.62,1.4,0.02,0.03,0.08,538.0,551.0,542.0,568.0,573.0,7,2
997,5.37,-6.82,0.92,0.21,0.19,0.33,538.0,552.0,543.0,569.0,574.0,7,2
998,8.83,-5.97,1.24,-0.0,0.17,0.42,538.0,552.0,543.0,568.0,573.0,7,2
999,10.15,-2.36,3.57,0.02,-0.0,0.28,537.0,552.0,542.0,569.0,574.0,7,2
1000,11.09,2.5,4.31,0.04,-0.03,0.05,538.0,551.0,543.0,568.0,574.0,7,2
1001,11.31,-0.45,5.1,0.03,0.01,0.02,538.0,552.0,543.0,569.0,573.0,7,2
1002,9.95,-0.66,3.39,-0.07,-0.17,-0.2,538.0,552.0,543.0,569.0,574.0,7,2
1003,9.61,-3.47,2.3,-0.21,-0.15,-0.35,538.0,552.0,543.0,569.0,574.0,7,2
1004,8.09,-6.06,1.22,-0.22,-0.08,-0.37,538.0,552.0,543.0,569.0,574.0,7,2
1005,6.95,-9.05,0.25,-0.15,-0.17,-0.22,538.0,552.0,543.0,569.0,574.0,7,2
1006,4.92,-7.52,0.84,0.18,0.07,0.24,538.0,552.0,543.0,568.0,575.0,7,2
1007,7.68,-6.07,0.89,-0.0,0.29,0.38,537.0,551.0,543.0,568.0,574.0,7,2
1008,10.04,-4.24,2.94,0.07,0.11,0.4,537.0,552.0,543.0,569.0,575.0,7,2
1009,10.71,0.91,4.3,0.08,0.01,0.13,538.0,552.0,543.0,569.0,574.0,7,2
1010,8.35,0.41,3.5,0.18,0.19,-0.25,538.0,552.0,543.0,569.0,574.0,7,2
1011,9.88,0.11,3.29,-0.07,-0.12,-0.17,538.0,552.0,543.0,570.0,574.0,7,2
1012,10.01,-2.88,2.65,-0.2,-0.23,-0.3,539.0,552.0,543.0,570.0,574.0,7,2
1013,8.32,-5.37,1.62,-0.22,-0.2,-0.42,539.0,552.0,543.0,570.0,574.0,7,2
1014,5.92,-8.23,-0.33,-0.07,-0.1,-0.5,538.0,551.0,543.0,569.0,574.0,7,2
1015,7.72,-7.34,0.65,-0.06,-0.14,0.08,538.0,552.0,543.0,569.0,575.0,7,2
1016,5.8,-6.42,0.28,0.01,0.1,0.33,538.0,552.0,543.0,569.0,574.0,7,2
1017,10.63,-5.6,1.95,-0.03,0.12,0.51,538.0,551.0,543.0,569.0,574.0,7,2
1018,8.63,-0.43,3.83,0.04,-0.32,0.01,539.0,551.0,543.0,569.0,574.0,7,2
1019,12.92,3.4,4.22,-0.06,-0.37,-0.0,539.0,552.0,543.0,569.0,574.0,7,2
1020,10.74,0.5,3.47,0.2,0.16,0.02,539.0,553.0,543.0,569.0,574.0,7,2
1021,9.91,-1.72,2.77,-0.07,-0.11,-0.24,538.0,552.0,543.0,569.0,575.0,7,2
1022,8.95,-4.63,1.78,-0.22,-0.23,-0.41,539.0,552.0,543.0,570.0,574.0,7,2
1023,7.16,-6.91,0.63,-0.14,-0.06,-0.31,538.0,552.0,543.0,569.0,574.0,7,2
1024,6.16,-9.36,0.56,0.13,0.15,0.09,538.0,552.0,543.0,569.0,574.0,7,2
1025,5.6,-7.17,0.42,0.07,-0.07,0.21,538.0,552.0,543.0,570.0,575.0,7,2
1026,8.66,-5.09,0.73,0.03,0.31,0.5,538.0,552.0,542.0,569.0,574.0,7,2
1027,11.86,-2.29,4.14,0.04,0.13,0.37,538.0,552.0,543.0,569.0,574.0,7,2
1028,10.88,9.25,3.89,0.02,-0.21,-0.04,538.0,552.0,543.0,569.0,575.0,7,2
1029,10.97,0.24,4.24,0.09,0.17,-0.03,538.0,552.0,543.0,569.0,575.0,7,2
1030,9.87,-1.48,2.77,-0.05,-0.06,-0.23,539.0,552.0,543.0,570.0,575.0,7,2
1031,8.64,-4.35,1.84,-0.22,-0.14,-0.37,538.0,553.0,543.0,570.0,575.0,7,2
1032,7.47,-7.11,0.29,-0.23,-0.07,-0.29,538.0,552.0,543.0,569.0,575.0,7,2
1033,5.92,-8.56,1.01,-0.04,-0.03,0.03,538.0,552.0,543.0,569.0,574.0,7,2
1034,6.11,-6.78,0.68,0.16,0.23,0.31,539.0,552.0,544.0,569.0,574.0,7,2
1035,9.33,-5.41,1.42,-0.02,0.14,0.36,538.0,552.0,544.0,569.0,575.0,7,2
1036,10.01,-2.52,3.47,0.03,0.07,0.26,538.0,552.0,543.0,570.0,575.0,7,2
1037,10.93,0.76,4.59,-0.11,0.06,-0.09,539.0,551.0,544.0,570.0,575.0,7,2
1038,10.44,0.63,4.12,0.06,0.12,-0.03,539.0,551.0,544.0,569.0,575.0,7,2
1039,10.15,0.2,3.4,-0.08,-0.25,-0.2,539.0,552.0,543.0,569.0,575.0,7,2
1040,9.62,-3.18,2.25,-0.21,-0.18,-0.34,538.0,552.0,543.0,570.0,575.0,7,2
1041,7.86,-6.6,0.58,-0.31,-0.17,-0.42,538.0,553.0,543.0,570.0,575.0,7,2
1042,6.46,-10.1,0.27,0.02,0.07,-0.09,538.0,552.0,543.0,570.0,575.0,7,2
1043,5.15,-7.99,0.34,0.13,0.02,0.23,539.0,552.0,543.0,569.0,574.0,7,2
1044,8.32,-6.13,0.51,0.01,0.1,0.39,538.0,552.0,543.0,569.0,574.0,7,2
1045,9.72,-3.58,2.87,0.26,0.5,0.54,538.0,552.0,543.0,569.0,575.0,7,2
1046,10.55,0.94,4.14,0.04,-0.07,0.02,539.0,552.0,543.0,569.0,575.0,7,2
1047,9.6,1.45,4.09,0.23,0.17,-0.08,539.0,552.0,544.0,569.0,575.0,7,2
1048,9.35,0.79,3.78,0.01,-0.15,-0.18,539.0,552.0,544.0,570.0,575.0,7,2
1049,10.05,-2.66,2.26,-0.21,-0.08,-0.32,538.0,552.0,544.0,569.0,575.0,7,2
1050,9.16,-2.98,1.45,-0.03,-0.02,0.02,529.0,553.0,541.0,566.0,582.0,8,2
1051,9.27,-3.29,1.73,-0.0,0.03,0.05,528.0,553.0,541.0,566.0,582.0,8,2
1052,8.67,-3.11,1.65,-0.14,-0.1,0.0,528.0,553.0,541.0,565.0,582.0,8,2
1053,9.5,-3.16,1.91,-0.09,-0.02,0.06,527.0,553.0,541.0,564.0,582.0,8,2
1054,9.62,-3.56,1.36,-0.16,-0.02,0.07,527.0,553.0,539.0,561.0,581.0,8,2
1055,9.15,-2.66,1.6,-0.05,0.14,0.12,524.0,554.0,539.0,559.0,581.0,8,2
1056,10.01,-0.79,2.63,-0.26,-0.26,0.06,524.0,554.0,540.0,559.0,580.0,8,2
1057,10.61,-1.17,3.04,-0.07,0.04,0.03,523.0,555.0,541.0,559.0,581.0,8,2
1058,7.96,-2.93,0.77,-0.34,0.07,-0.23,522.0,555.0,541.0,558.0,580.0,8,2
1059,8.04,-8.37,-0.08,-0.35,0.35,-0.17,522.0,555.0,541.0,559.0,580.0,8,2
1060,5.66,-8.38,0.21,0.1,-0.02,0.08,522.0,556.0,541.0,559.0,580.0,8,2
1061,7.69,-6.79,0.42,0.22,0.1,0.55,524.0,556.0,541.0,559.0,580.0,8,2
1062,13.08,-1.9,4.22,-0.0,-0.05,0.44,524.0,556.0,542.0,559.0,581.0,8,2
1063,12.04,5.04,5.35,-0.09,-0.05,0.09,525.0,556.0,543.0,560.0,581.0,8,2
1064,11.24,1.55,4.7,-0.01,0.14,-0.19,526.0,556.0,544.0,561.0,581.0,8,2
1065,10.06,-1.53,2.08,-0.31,0.16,-0.36,526.0,556.0,544.0,561.0,581.0,8,2
1066,7.98,-6.15,0.62,-0.46,0.03,-0.56,526.0,556.0,544.0,561.0,581.0,8,2
1067,6.19,-10.45,-1.12,-0.23,0.16,-0.19,525.0,557.0,544.0,560.0,581.0,8,2
1068,5.15,-8.88,-0.01,0.29,0.16,0.39,526.0,556.0,543.0,561.0,581.0,8,2
1069,8.23,-6.79,-0.07,0.14,0.08,0.54,526.0,556.0,543.0,561.0,581.0,8,2
1070,8.79,-1.7,2.25,0.23,0.03,0.24,526.0,556.0,544.0,561.0,581.0,8,2
1071,11.24,5.19,4.3,0.11,0.05,0.19,526.0,556.0,545.0,562.0,581.0,8,2
1072,10.97,0.75,5.13,0.07,0.2,-0.0,526.0,557.0,545.0,563.0,582.0,8,2
1073,10.11,-0.73,3.08,-0.28,-0.02,-0.39,526.0,556.0,545.0,563.0,581.0,8,2
1074,9.35,-4.42,1.43,-0.44,-0.04,-0.58,526.0,556.0,545.0,563.0,582.0,8,2
1075,6.25,-12.27,1.09,-0.38,-0.05,-0.31,525.0,557.0,544.0,563.0,582.0,8,2
1076,7.51,-9.34,0.36,0.02,-0.07,0.12,524.0,556.0,545.0,563.0,582.0,8,2
1077,5.38,-7.13,0.25,0.19,-0.03,0.41,525.0,556.0,544.0,563.0,582.0,8,2
1078,10.52,-5.26,0.75,0.26,-0.01,0.52,527.0,556.0,545.0,562.0,582.0,8,2
1079,10.98,-2.55,4.64,-0.35,0.61,0.3,526.0,556.0,545.0,563.0,582.0,8,2
1080,12.33,4.16,5.04,0.2,0.55,-0.0,525.0,557.0,545.0,564.0,583.0,8,2
1081,11.87,1.35,4.84,0.01,0.19,0.09,527.0,555.0,546.0,564.0,582.0,8,2
1082,10.12,0.02,3.14,-0.21,-0.07,-0.34,526.0,556.0,545.0,564.0,582.0,8,2
1083,9.99,-3.93,1.91,-0.35,-0.03,-0.49,525.0,556.0,545.0,564.0,582.0,8,2
1084,7.11,-16.55,-0.97,-0.43,-0.61,-0.56,526.0,556.0,545.0,564.0,582.0,8,2
1085,5.68,-10.28,0.31,0.08,0.06,0.09,526.0,556.0,545.0,563.0,583.0,8,2
1086,5.26,-7.31,-0.14,0.24,0.03,0.43,526.0,557.0,545.0,564.0,583.0,8,2
1087,10.14,-6.33,1.15,0.16,0.22,0.63,526.0,556.0,545.0,565.0,582.0,8,2
1088,9.03,-1.04,4.23,-0.4,0.19,0.3,527.0,556.0,546.0,564.0,582.0,8,2
1089,10.65,4.98,3.85,0.06,0.79,0.16,526.0,557.0,546.0,564.0,583.0,8,2
1090,11.67,0.51,5.13,-0.21,-0.18,0.02,527.0,557.0,546.0,565.0,582.0,8,2
1091,10.01,-0.15,2.91,-0.17,-0.21,-0.42,527.0,557.0,546.0,565.0,583.0,8,2
1092,10.11,-4.73,1.56,-0.27,0.09,-0.41,527.0,556.0,547.0,565.0,583.0,8,2
1093,6.91,-4.99,0.15,-0.19,0.07,-0.49,527.0,556.0,546.0,566.0,583.0,8,2
1094,6.05,-10.05,-0.63,0.05,0.02,0.03,526.0,556.0,546.0,565.0,584.0,8,2
1095,5.3,-7.03,0.18,0.24,0.07,0.38,527.0,556.0,546.0,565.0,583.0,8,2
1096,8.55,-4.72,0.95,0.1,0.19,0.53,527.0,557.0,547.0,565.0,583.0,8,2
1097,9.65,-1.63,4.6,-0.06,-0.2,0.22,526.0,557.0,547.0,566.0,583.0,8,2
1098,13.26,4.83,5.75,-0.06,-0.18,-0.01,527.0,557.0,547.0,566.0,583.0,8,2
1099,11.54,0.54,4.37,0.03,0.03,-0.1,528.0,557.0,547.0,567.0,583.0,8,2
1100,10.35,-0.8,2.39,-0.18,0.05,-0.29,528.0,556.0,548.0,567.0,584.0,8,2
1101,9.27,-4.89,1.02,-0.45,-0.05,-0.51,528.0,556.0,548.0,567.0,583.0,8,2
1102,7.05,-10.18,-0.69,-0.3,-0.15,-0.38,527.0,556.0,547.0,567.0,583.0,8,2
1103,6.26,-8.03,-0.25,0.25,0.28,0.31,527.0,557.0,547.0,566.0,583.0,8,2
1104,6.73,-6.3,-0.83,0.08,-0.13,0.42,527.0,557.0,547.0,567.0,583.0,8,2
1105,10.0,-5.02,3.23,0.35,0.0,0.45,527.0,557.0,548.0,566.0,583.0,8,2
1106,12.48,2.84,4.14,0.17,0.07,0.24,528.0,557.0,547.0,566.0,584.0,8,2
1107,11.53,2.09,4.81,0.24,-0.13,0.06,528.0,557.0,548.0,567.0,584.0,8,2
1108,9.81,0.28,3.0,-0.13,-0.26,-0.39,529.0,555.0,548.0,567.0,584.0,8,2
1109,10.31,-3.56,1.41,-0.33,-0.12,-0.45,528.0,557.0,547.0,567.0,584.0,8,2
1110,7.39,-6.98,-0.18,-0.41,-0.17,-0.47,528.0,556.0,548.0,568.0,584.0,8,2
1111,6.62,-10.8,-0.48,0.1,0.19,0.09,527.0,557.0,547.0,568.0,584.0,8,2
1112,5.26,-7.64,0.07,0.2,-0.03,0.29,528.0,556.0,547.0,567.0,584.0,8,2
1113,9.22,-5.59,0.78,0.24,0.32,0.59,527.0,556.0,547.0,567.0,584.0,8,2
1114,10.81,0.86,3.5,-0.2,-0.57,0.05,528.0,556.0,548.0,567.0,584.0,8,2
1115,11.7,5.49,5.07,0.1,0.79,0.0,528.0,556.0,548.0,567.0,584.0,8,2
1116,10.91,2.03,3.84,-0.1,-0.37,-0.28,528.0,556.0,548.0,567.0,585.0,8,2
1117,9.89,-1.68,2.06,-0.28,-0.08,-0.44,528.0,556.0,548.0,568.0,585.0,8,2
1118,8.91,-5.58,0.32,-0.45,-0.25,-0.58,527.0,555.0,548.0,568.0,584.0,8,2
1119,7.21,-10.1,-0.84,-0.17,-0.07,-0.24,528.0,556.0,547.0,568.0,584.0,8,2
1120,6.13,-9.1,0.57,0.37,0.36,0.37,528.0,556.0,547.0,568.0,584.0,8,2
1121,7.28,-6.63,-0.57,0.1,-0.05,0.43,529.0,556.0,547.0,569.0,584.0,8,2
1122,12.09,-4.09,2.05,0.12,0.13,0.57,528.0,556.0,547.0,568.0,584.0,8,2
1123,10.52,2.48,4.3,0.15,-0.01,0.3,527.0,556.0,548.0,568.0,584.0,8,2
1124,8.79,4.56,4.23,0.23,0.14,0.09,529.0,556.0,548.0,569.0,585.0,8,2
1125,9.93,1.33,2.68,-0.12,-0.35,-0.34,529.0,556.0,548.0,569.0,585.0,8,2
1126,10.37,-2.8,1.66,-0.39,-0.12,-0.41,528.0,556.0,548.0,568.0,585.0,8,2
1127,8.09,-6.43,0.26,-0.51,-0.28,-0.58,529.0,555.0,548.0,568.0,585.0,8,2
1128,6.95,-10.23,-0.66,-0.12,0.08,-0.13,528.0,556.0,547.0,569.0,585.0,8,2
1129,5.35,-8.9,0.57,0.29,0.17,0.36,528.0,557.0,547.0,568.0,585.0,8,2
1130,7.16,-6.7,-0.39,0.14,-0.24,0.26,528.0,556.0,548.0,568.0,584.0,8,2
1131,12.51,-4.04,2.49,0.22,0.24,0.63,529.0,556.0,547.0,568.0,585.0,8,2
1132,11.03,1.88,4.02,0.12,0.02,0.32,529.0,557.0,548.0,569.0,585.0,8,2
1133,8.61,4.31,4.43,0.03,-0.14,0.15,528.0,556.0,548.0,569.0,585.0,8,2
1134,9.71,1.57,3.3,-0.09,-0.47,-0.36,528.0,557.0,548.0,568.0,585.0,8,2
1135,10.47,-2.7,1.73,-0.4,-0.15,-0.43,529.0,556.0,548.0,569.0,585.0,8,2
1136,8.02,-6.99,0.45,-0.43,-0.2,-0.56,529.0,556.0,548.0,569.0,585.0,8,2
1137,6.09,-11.03,-0.49,-0.03,0.13,-0.1,528.0,556.0,548.0,569.0,584.0,8,2
1138,5.22,-8.68,0.02,0.25,0.02,0.43,528.0,556.0,548.0,568.0,585.0,8,2
1139,7.85,-6.33,-0.64,0.08,0.26,0.54,528.0,556.0,548.0,569.0,585.0,8,2
1140,13.31,-4.24,4.18,0.25,0.41,0.16,528.0,556.0,548.0,569.0,584.0,8,2
1141,12.84,3.23,5.42,0.09,0.24,0.21,528.0,556.0,548.0,569.0,585.0,8,2
1142,10.92,1.24,6.15,-0.17,-0.18,0.13,528.0,556.0,549.0,569.0,585.0,8,2
1143,9.49,0.99,2.96,-0.12,-0.14,-0.32,528.0,556.0,548.0,570.0,585.0,8,2
1144,10.22,-4.18,1.62,-0.34,-0.01,-0.45,528.0,556.0,548.0,569.0,585.0,8,2
1145,8.11,-7.65,0.07,-0.31,-0.1,-0.51,528.0,556.0,548.0,569.0,585.0,8,2
1146,6.19,-10.66,-0.18,-0.04,-0.05,-0.09,528.0,557.0,548.0,569.0,585.0,8,2
1147,5.6,-7.39,-0.01,0.24,0.14,0.43,528.0,556.0,548.0,570.0,585.0,8,2
1148,8.83,-5.98,0.71,0.24,0.26,0.55,529.0,556.0,548.0,570.0,585.0,8,2
1149,9.78,-1.77,2.78,-0.23,0.28,0.35,529.0,557.0,549.0,569.0,585.0,8,2
1150,14.24,2.21,6.39,0.05,0.6,-0.04,528.0,557.0,549.0,570.0,585.0,8,2
1151,9.73,1.08,5.47,-0.19,-0.12,0.01,530.0,556.0,549.0,569.0,585.0,8,2
1152,10.18,0.82,3.12,-0.16,-0.22,-0.37,529.0,556.0,549.0,570.0,585.0,8,2
1153,10.3,-3.26,1.98,-0.37,-0.12,-0.47,530.0,556.0,549.0,569.0,585.0,8,2
1154,8.35,-6.58,0.6,-0.39,-0.15,-0.53,529.0,556.0,549.0,569.0,586.0,8,2
1155,7.05,-10.42,-0.33,-0.08,-0.04,-0.21,528.0,558.0,548.0,570.0,584.0,8,2
1156,5.15,-8.21,-0.34,0.36,0.06,0.4,529.0,556.0,548.0,569.0,585.0,8,2
1157,8.78,-5.59,0.56,0.12,0.17,0.45,529.0,557.0,548.0,570.0,585.0,8,2
1158,10.94,-3.55,2.31,0.03,0.02,0.44,530.0,556.0,548.0,570.0,585.0,8,2
1159,9.52,2.01,4.23,0.11,-0.04,0.18,530.0,557.0,549.0,570.0,585.0,8,2
1160,7.54,3.95,3.76,0.13,0.03,0.08,529.0,558.0,549.0,570.0,586.0,8,2
1161,9.69,0.99,3.18,-0.06,-0.34,-0.28,530.0,557.0,549.0,570.0,585.0,8,2
1162,10.03,-3.11,2.07,-0.18,0.06,-0.34,529.0,556.0,549.0,569.0,586.0,8,2
1163,7.97,-6.47,1.09,-0.32,-0.16,-0.55,530.0,556.0,549.0,570.0,585.0,8,2
1164,6.11,-9.25,-0.32,-0.19,-0.19,-0.31,530.0,557.0,549.0,570.0,586.0,8,2
1165,5.58,-8.46,0.22,0.29,0.23,0.38,530.0,556.0,549.0,569.0,585.0,8,2
1166,7.42,-6.57,0.17,0.03,-0.07,0.41,529.0,557.0,548.0,569.0,585.0,8,2
1167,10.58,-4.11,1.83,0.17,0.3,0.62,529.0,556.0,549.0,570.0,585.0,8,2
1168,9.5,1.72,3.71,0.04,-0.24,0.09,529.0,556.0,549.0,570.0,585.0,8,2
1169,11.4,5.59,4.13,0.09,0.22,0.02,529.0,556.0,549.0,570.0,585.0,8,2
1170,10.81,1.08,3.98,0.09,-0.19,-0.23,530.0,556.0,549.0,569.0,586.0,8,2
1171,10.16,-1.47,2.33,-0.24,-0.03,-0.33,530.0,556.0,549.0,570.0,586.0,8,2
1172,9.23,-5.29,1.37,-0.47,-0.34,-0.67,529.0,557.0,549.0,570.0,586.0,8,2
1173,6.93,-7.97,-0.15,-0.27,-0.1,-0.44,529.0,557.0,549.0,569.0,586.0,8,2
1174,7.71,-8.29,0.62,-0.08,-0.17,-0.17,530.0,557.0,548.0,570.0,585.0,8,2
1175,4.97,-6.6,-0.32,0.26,0.08,0.44,529.0,557.0,548.0,570.0,586.0,8,2
1176,9.68,-5.04,0.17,0.09,0.46,0.63,529.0,556.0,549.0,570.0,586.0,8,2
1177,12.68,-2.26,4.13,0.21,-0.01,0.36,528.0,557.0,549.0,570.0,585.0,8,2
1178,11.27,4.2,4.83,0.02,-0.28,0.09,530.0,556.0,549.0,570.0,585.0,8,2
1179,13.0,0.63,5.25,0.02,-0.01,0.07,529.0,557.0,548.0,571.0,586.0,8,2
1180,10.29,-0.41,2.63,-0.1,-0.05,-0.27,530.0,556.0,549.0,570.0,586.0,8,2
1181,9.83,-4.53,1.82,-0.22,-0.08,-0.4,529.0,557.0,549.0,570.0,586.0,8,2
1182,7.67,-6.99,0.01,-0.4,-0.42,-0.59,529.0,557.0,548.0,570.0,585.0,8,2
1183,5.91,-10.11,-0.27,-0.12,-0.04,-0.03,529.0,557.0,549.0,570.0,586.0,8,2
1184,5.74,-8.25,0.31,0.21,0.15,0.41,528.0,557.0,548.0,570.0,585.0,8,2
1185,9.7,-4.59,1.18,0.2,0.38,0.47,529.0,556.0,548.0,570.0,585.0,8,2
1186,12.45,-0.89,4.0,0.09,-0.03,0.24,528.0,556.0,549.0,570.0,586.0,8,2
1187,12.76,5.1,4.67,0.05,0.13,0.23,530.0,557.0,549.0,571.0,586.0,8,2
1188,11.52,1.7,4.48,0.03,0.01,-0.04,529.0,556.0,549.0,571.0,586.0,8,2
1189,10.37,-0.78,2.66,-0.15,-0.06,-0.33,529.0,556.0,549.0,571.0,586.0,8,2
1190,9.23,-4.41,1.28,-0.35,-0.13,-0.5,529.0,556.0,549.0,569.0,586.0,8,2
1191,7.71,-8.21,0.15,-0.26,-0.07,-0.45,529.0,557.0,549.0,571.0,586.0,8,2
1192,5.67,-9.85,1.09,0.16,0.16,0.12,529.0,556.0,548.0,570.0,586.0,8,2
1193,5.11,-7.25,-0.27,0.27,0.09,0.42,530.0,556.0,548.0,571.0,585.0,8,2
1194,9.69,-4.7,0.56,0.09,0.26,0.6,529.0,556.0,548.0,571.0,586.0,8,2
1195,11.69,-1.81,3.74,0.07,0.09,0.42,530.0,556.0,549.0,571.0,585.0,8,2
1196,8.03,3.71,5.35,-0.06,0.45,-0.01,530.0,557.0,549.0,570.0,585.0,8,2
1197,12.76,0.65,5.61,-0.05,-0.08,0.03,530.0,557.0,549.0,572.0,586.0,8,2
1198,10.03,-0.27,3.1,-0.09,-0.02,-0.25,530.0,556.0,549.0,571.0,586.0,8,2
1199,9.91,-4.01,2.07,-0.32,-0.24,-0.51,530.0,557.0,549.0,571.0,585.0,8,2
1200,8.94,-3.4,1.96,-0.03,-0.02,0.01,533.0,557.0,548.0,573.0,586.0,9,2
1201,8.97,-3.47,2.05,-0.02,-0.01,0.0,532.0,558.0,549.0,573.0,586.0,9,2
1202,8.79,-3.57,2.29,-0.15,-0.21,-0.02,532.0,558.0,549.0,573.0,586.0,9,2
1203,8.72,-3.31,2.01,-0.21,-0.31,-0.12,533.0,557.0,549.0,572.0,586.0,9,2
1204,9.26,-3.3,1.95,-0.16,-0.32,-0.1,533.0,558.0,548.0,572.0,586.0,9,2
1205,9.17,-3.16,1.21,-0.05,-0.32,-0.06,534.0,558.0,548.0,571.0,586.0,9,2
1206,9.9,-3.72,1.12,0.06,-0.14,-0.04,535.0,558.0,548.0,572.0,585.0,9,2
1207,9.21,-2.49,1.14,0.14,0.11,0.08,533.0,558.0,548.0,572.0,585.0,9,2
1208,10.64,-1.46,2.4,0.21,0.21,0.11,533.0,559.0,548.0,572.0,585.0,9,2
1209,9.94,-0.9,2.17,0.05,0.06,-0.06,533.0,558.0,548.0,571.0,586.0,9,2
1210,8.8,-3.25,1.21,-0.15,-0.07,-0.21,533.0,559.0,548.0,570.0,586.0,9,2
1211,8.5,-6.78,-0.17,-0.34,-0.16,-0.27,532.0,558.0,549.0,569.0,586.0,9,2
1212,8.41,-7.41,0.43,0.25,0.32,0.17,532.0,559.0,548.0,570.0,586.0,9,2
1213,6.22,-6.33,0.45,0.16,0.08,0.27,534.0,559.0,549.0,570.0,586.0,9,2
1214,9.57,-2.75,1.38,0.06,0.31,0.34,532.0,558.0,549.0,571.0,586.0,9,2
1215,12.2,3.42,4.56,-0.12,-0.23,0.0,532.0,558.0,549.0,571.0,586.0,9,2
1216,10.68,2.89,4.16,0.03,-0.04,0.1,533.0,558.0,549.0,571.0,586.0,9,2
1217,10.63,-0.48,3.3,-0.09,0.04,-0.2,532.0,559.0,550.0,573.0,586.0,9,2
1218,9.17,-4.06,1.27,-0.33,-0.17,-0.46,531.0,560.0,550.0,572.0,586.0,9,2
1219,10.96,-15.39,-0.71,-0.28,-0.6,-0.27,531.0,560.0,549.0,572.0,586.0,9,2
1220,10.86,-6.21,1.32,0.12,0.19,-0.12,531.0,558.0,549.0,571.0,585.0,9,2
1221,5.27,-6.5,0.31,0.08,-0.04,0.25,532.0,560.0,549.0,571.0,586.0,9,2
1222,9.12,-4.24,0.7,-0.08,0.36,0.45,532.0,560.0,549.0,571.0,586.0,9,2
1223,13.06,-0.04,5.04,-0.03,0.1,0.35,533.0,559.0,550.0,572.0,586.0,9,2
1224,10.43,4.88,5.88,-0.1,-0.49,-0.04,533.0,558.0,549.0,572.0,587.0,9,2
1225,12.26,0.25,4.34,-0.1,-0.14,-0.13,533.0,560.0,550.0,572.0,587.0,9,2
1226,9.2,-1.28,2.36,-0.12,-0.02,-0.31,532.0,559.0,549.0,572.0,586.0,9,2
1227,9.06,-5.35,1.04,-0.39,-0.31,-0.49,533.0,559.0,549.0,572.0,586.0,9,2
1228,7.34,-9.55,-0.84,-0.24,-0.13,-0.27,531.0,559.0,549.0,571.0,586.0,9,2
1229,5.66,-7.93,0.73,0.25,0.11,0.28,530.0,559.0,549.0,571.0,585.0,9,2
1230,7.41,-6.57,0.19,0.02,-0.22,0.27,531.0,559.0,549.0,571.0,585.0,9,2
1231,9.57,-3.7,1.19,0.1,0.21,0.46,532.0,559.0,549.0,570.0,586.0,9,2
1232,12.1,0.61,4.54,0.3,0.19,0.24,532.0,559.0,549.0,571.0,586.0,9,2
1233,12.1,4.78,5.41,-0.12,-0.44,0.02,532.0,559.0,549.0,571.0,586.0,9,2
1234,10.27,1.32,4.41,0.1,0.12,-0.12,532.0,559.0,549.0,572.0,587.0,9,2
1235,10.13,-1.58,2.29,-0.2,-0.02,-0.33,531.0,559.0,550.0,571.0,586.0,9,2
1236,8.55,-5.89,0.96,-0.27,-0.07,-0.42,531.0,559.0,549.0,572.0,586.0,9,2
1237,6.82,-10.17,0.45,-0.08,-0.08,-0.26,530.0,559.0,549.0,571.0,586.0,9,2
1238,5.89,-7.7,0.66,0.2,0.01,0.16,530.0,558.0,549.0,570.0,586.0,9,2
1239,6.86,-6.27,-0.36,0.06,0.02,0.32,531.0,559.0,549.0,571.0,586.0,9,2
1240,9.51,-4.12,0.9,0.06,0.25,0.45,531.0,559.0,549.0,572.0,586.0,9,2
1241,13.74,1.85,5.34,-0.22,-0.24,0.25,530.0,560.0,549.0,572.0,586.0,9,2
1242,8.14,1.64,5.52,0.41,0.15,-0.0,531.0,560.0,550.0,572.0,586.0,9,2
1243,10.08,1.54,3.45,0.04,-0.17,-0.27,532.0,560.0,550.0,572.0,586.0,9,2
1244,10.1,-1.74,1.91,-0.18,-0.06,-0.31,532.0,559.0,550.0,572.0,586.0,9,2
1245,8.21,-5.59,0.21,-0.35,-0.31,-0.53,532.0,560.0,550.0,572.0,586.0,9,2
1246,7.62,-10.3,-0.23,-0.07,0.18,-0.05,531.0,560.0,550.0,572.0,587.0,9,2
1247,5.94,-9.12,1.12,0.34,-0.04,0.29,533.0,560.0,550.0,572.0,586.0,9,2
1248,6.71,-6.39,-0.11,0.06,-0.04,0.36,532.0,560.0,550.0,573.0,586.0,9,2
1249,14.41,-3.18,3.18,-0.34,0.09,0.44,531.0,560.0,550.0,571.0,586.0,9,2
1250,9.73,1.48,3.84,-0.08,-0.23,0.21,531.0,561.0,550.0,572.0,586.0,9,2
1251,10.29,4.19,3.85,0.09,-0.07,-0.02,532.0,560.0,550.0,573.0,586.0,9,2
1252,10.62,0.6,2.82,-0.05,-0.11,-0.22,532.0,560.0,551.0,573.0,586.0,9,2
1253,10.12,-2.77,1.8,-0.24,0.0,-0.32,532.0,561.0,550.0,572.0,586.0,9,2
1254,8.43,-6.41,0.78,-0.4,-0.28,-0.49,532.0,560.0,550.0,573.0,587.0,9,2
1255,6.54,-9.7,-0.75,-0.17,-0.14,-0.18,531.0,560.0,551.0,572.0,586.0,9,2
1256,5.7,-7.95,-0.35,0.27,0.24,0.34,532.0,559.0,550.0,572.0,586.0,9,2
1257,8.11,-6.44,0.15,0.06,0.2,0.42,531.0,560.0,550.0,573.0,586.0,9,2
1258,11.77,-2.51,3.45,0.07,0.32,0.64,532.0,559.0,550.0,572.0,586.0,9,2
1259,9.11,6.67,4.61,-0.05,-0.31,0.25,531.0,560.0,550.0,573.0,586.0,9,2
1260,11.86,1.47,5.29,-0.03,0.07,0.04,533.0,560.0,550.0,572.0,586.0,9,2
1261,10.06,0.66,2.79,0.04,-0.12,-0.25,532.0,560.0,551.0,573.0,587.0,9,2
1262,10.24,-3.77,1.4,-0.35,-0.1,-0.45,533.0,560.0,550.0,573.0,587.0,9,2
1263,7.98,-8.14,-1.12,-0.47,-0.17,-0.49,533.0,560.0,550.0,573.0,587.0,9,2
1264,6.51,-10.72,0.67,0.22,0.4,0.27,532.0,560.0,550.0,572.0,586.0,9,2
1265,5.15,-7.43,0.69,0.14,-0.15,0.28,533.0,561.0,550.0,572.0,586.0,9,2
1266,9.68,-5.05,0.92,0.01,0.25,0.47,533.0,561.0,550.0,572.0,586.0,9,2
1267,9.52,-1.0,2.35,0.26,-0.01,0.2,532.0,560.0,550.0,572.0,586.0,9,2
1268,11.54,4.92,5.08,-0.04,0.25,0.25,532.0,561.0,550.0,573.0,586.0,9,2
1269,11.18,1.28,4.69,-0.09,-0.16,0.14,533.0,560.0,551.0,573.0,587.0,9,2
1270,8.71,0.53,2.32,-0.08,-0.17,-0.3,532.0,560.0,550.0,573.0,587.0,9,2
1271,9.85,-4.69,1.56,-0.35,-0.06,-0.39,532.0,560.0,551.0,573.0,587.0,9,2
1272,7.77,-4.11,0.26,-0.25,0.1,-0.41,532.0,560.0,550.0,573.0,586.0,9,2
1273,7.6,-8.05,0.2,-0.16,-0.07,-0.08,531.0,560.0,550.0,572.0,586.0,9,2
1274,6.56,-7.4,0.0,0.19,0.06,0.37,532.0,560.0,550.0,573.0,587.0,9,2
1275,9.73,-4.78,1.45,-0.13,-0.11,0.34,532.0,560.0,550.0,573.0,587.0,9,2
1276,8.08,1.88,3.02,0.23,0.04,0.12,533.0,560.0,550.0,573.0,587.0,9,2
1277,10.37,5.07,4.89,0.1,0.03,-0.08,532.0,562.0,550.0,573.0,587.0,9,2
1278,10.78,1.24,4.21,0.0,-0.2,-0.11,532.0,561.0,551.0,573.0,587.0,9,2
1279,9.6,-1.82,2.43,-0.18,-0.07,-0.33,532.0,560.0,550.0,573.0,587.0,9,2
1280,8.74,-5.45,0.85,-0.36,-0.18,-0.51,532.0,560.0,551.0,573.0,587.0,9,2
1281,6.95,-9.96,-0.03,-0.25,-0.17,-0.31,532.0,561.0,549.0,573.0,586.0,9,2
1282,6.09,-7.9,-0.2,0.17,0.09,0.22,532.0,560.0,550.0,572.0,586.0,9,2
1283,6.81,-6.64,-0.43,0.07,0.03,0.41,531.0,561.0,549.0,573.0,586.0,9,2
1284,11.2,-5.08,1.76,-0.04,0.11,0.5,532.0,560.0,550.0,572.0,587.0,9,2
1285,8.61,1.96,3.09,0.0,-0.44,0.07,532.0,561.0,550.0,573.0,587.0,9,2
1286,11.79,5.76,5.14,0.47,-0.1,0.19,532.0,560.0,551.0,572.0,587.0,9,2
1287,10.69,1.4,3.85,0.2,-0.03,-0.17,533.0,561.0,550.0,573.0,587.0,9,2
1288,9.92,-1.55,2.11,-0.15,-0.09,-0.3,533.0,560.0,551.0,574.0,587.0,9,2
1289,8.62,-5.72,0.92,-0.28,-0.12,-0.43,532.0,560.0,550.0,573.0,586.0,9,2
1290,6.56,-8.27,-0.06,-0.27,-0.24,-0.34,532.0,560.0,550.0,574.0,586.0,9,2
1291,8.24,-10.88,0.67,0.07,0.03,0.13,531.0,561.0,550.0,573.0,586.0,9,2
1292,6.1,-7.0,-0.15,0.14,0.01,0.33,532.0,561.0,550.0,572.0,586.0,9,2
1293,9.62,-4.65,1.18,0.14,0.48,0.6,533.0,560.0,550.0,572.0,587.0,9,2
1294,9.54,1.39,3.89,0.11,-0.08,0.08,533.0,560.0,550.0,573.0,587.0,9,2
1295,11.77,5.56,5.42,-0.0,-0.31,-0.02,533.0,561.0,551.0,573.0,587.0,9,2
1296,10.93,1.56,4.14,0.1,0.08,-0.17,533.0,561.0,551.0,573.0,587.0,9,2
1297,9.58,-1.78,2.1,-0.2,-0.11,-0.36,533.0,561.0,551.0,572.0,587.0,9,2
1298,8.16,-5.8,0.73,-0.28,-0.17,-0.46,533.0,561.0,551.0,574.0,587.0,9,2
1299,7.83,-10.01,-0.57,-0.22,-0.11,-0.28,534.0,561.0,550.0,573.0,587.0,9,2
1300,5.81,-7.83,0.22,0.23,0.18,0.24,533.0,561.0,550.0,572.0,586.0,9,2
1301,7.68,-6.3,-1.42,0.34,-0.45,0.3,532.0,560.0,550.0,573.0,587.0,9,2
1302,11.07,-4.87,1.85,0.18,0.52,0.59,532.0,561.0,549.0,573.0,587.0,9,2
1303,10.77,2.38,4.42,0.15,0.26,0.35,533.0,560.0,551.0,573.0,587.0,9,2
1304,9.86,2.5,5.02,0.18,-0.19,-0.03,533.0,561.0,550.0,573.0,587.0,9,2
1305,10.0,1.03,4.17,0.06,0.04,-0.23,533.0,561.0,551.0,573.0,588.0,9,2
1306,10.19,-2.49,2.15,-0.31,-0.14,-0.46,533.0,562.0,551.0,574.0,587.0,9,2
1307,8.34,-6.28,0.24,-0.38,-0.14,-0.53,533.0,561.0,550.0,573.0,587.0,9,2
1308,6.2,-10.62,-0.68,-0.04,0.17,-0.1,533.0,561.0,549.0,574.0,587.0,9,2
1309,4.94,-8.39,0.14,0.22,-0.0,0.4,532.0,560.0,549.0,573.0,587.0,9,2
1310,7.54,-6.3,-0.54,0.1,0.12,0.3,531.0,560.0,550.0,573.0,587.0,9,2
1311,14.02,-3.9,4.19,-0.01,0.0,0.55,532.0,562.0,549.0,573.0,587.0,9,2
1312,10.67,2.99,4.59,-0.05,-0.3,0.37,533.0,562.0,550.0,573.0,587.0,9,2
1313,12.65,3.25,5.38,-0.15,-0.13,0.26,533.0,559.0,551.0,574.0,587.0,9,2
1314,10.13,1.54,3.23,-0.0,-0.23,-0.29,533.0,561.0,550.0,574.0,587.0,9,2
1315,10.26,-3.01,1.51,-0.26,-0.0,-0.38,533.0,561.0,551.0,573.0,587.0,9,2
1316,7.76,-7.46,0.52,-0.33,-0.06,-0.51,533.0,561.0,551.0,573.0,587.0,9,2
1317,6.52,-10.98,-0.5,0.01,0.02,-0.16,532.0,561.0,550.0,573.0,587.0,9,2
1318,4.33,-8.5,-0.31,0.29,0.24,0.58,533.0,561.0,551.0,573.0,586.0,9,2
1319,8.71,-5.74,-0.28,-0.05,-0.01,0.29,533.0,561.0,550.0,574.0,587.0,9,2
1320,11.08,-2.9,3.47,0.1,0.47,0.67,533.0,561.0,550.0,573.0,587.0,9,2
1321,12.04,9.05,4.86,-0.06,-0.34,-0.18,531.0,561.0,550.0,573.0,587.0,9,2
1322,11.25,0.85,6.24,0.07,0.02,0.06,533.0,562.0,551.0,573.0,588.0,9,2
1323,10.59,0.9,3.04,-0.16,-0.38,-0.36,534.0,561.0,551.0,573.0,588.0,9,2
1324,9.38,-3.1,1.49,-0.37,-0.24,-0.49,533.0,562.0,550.0,574.0,587.0,9,2
1325,8.53,-7.2,0.45,-0.41,-0.23,-0.54,534.0,561.0,551.0,573.0,587.0,9,2
1326,6.55,-11.46,-0.33,-0.0,-0.13,-0.13,533.0,562.0,551.0,573.0,587.0,9,2
1327,5.1,-8.76,0.16,0.32,0.1,0.38,533.0,562.0,550.0,573.0,587.0,9,2
1328,8.09,-6.83,-0.22,0.08,0.24,0.42,532.0,563.0,550.0,573.0,586.0,9,2
1329,13.68,-4.48,4.14,0.24,0.09,0.49,533.0,562.0,550.0,574.0,587.0,9,2
1330,9.47,4.2,4.12,-0.24,-0.07,0.32,533.0,561.0,550.0,574.0,587.0,9,2
1331,10.47,1.88,5.26,0.01,0.28,0.08,534.0,562.0,551.0,573.0,587.0,9,2
1332,9.9,0.42,3.26,-0.06,-0.1,-0.27,534.0,561.0,551.0,574.0,587.0,9,2
1333,9.75,-3.94,1.68,-0.32,-0.05,-0.41,533.0,562.0,550.0,574.0,588.0,9,2
1334,6.93,-6.69,0.08,-0.57,-0.45,-0.57,533.0,562.0,551.0,574.0,587.0,9,2
1335,7.05,-11.17,-0.88,-0.18,-0.04,-0.09,533.0,561.0,551.0,573.0,587.0,9,2
1336,5.29,-7.93,0.14,0.42,0.14,0.58,533.0,562.0,550.0,573.0,587.0,9,2
1337,9.43,-5.89,0.88,0.08,0.2,0.53,533.0,562.0,550.0,573.0,587.0,9,2
1338,9.22,-2.29,2.46,0.39,0.4,0.22,533.0,561.0,550.0,574.0,587.0,9,2
1339,14.68,3.75,5.54,-0.29,-0.88,0.29,533.0,563.0,551.0,574.0,587.0,9,2
1340,11.34,1.06,5.32,-0.06,0.12,0.17,533.0,562.0,551.0,574.0,588.0,9,2
1341,10.18,0.85,3.5,-0.04,-0.13,-0.27,532.0,562.0,551.0,574.0,587.0,9,2
1342,9.84,-3.05,1.9,-0.23,-0.07,-0.37,534.0,563.0,551.0,574.0,588.0,9,2
1343,8.08,-6.9,0.45,-0.35,-0.3,-0.6,533.0,562.0,551.0,574.0,587.0,9,2
1344,6.7,-10.82,-0.69,-0.09,-0.05,-0.19,532.0,562.0,550.0,574.0,588.0,9,2
1345,4.87,-8.24,-0.75,0.36,0.15,0.44,533.0,562.0,551.0,573.0,587.0,9,2
1346,7.89,-6.06,-0.52,0.04,0.1,0.44,533.0,563.0,551.0,574.0,587.0,9,2
1347,14.78,-3.24,3.96,-0.07,0.01,0.59,533.0,562.0,551.0,574.0,587.0,9,2
1348,8.79,11.67,3.54,0.16,-0.07,0.13,534.0,563.0,551.0,573.0,587.0,9,2
1349,9.93,1.45,5.27,-0.02,0.02,0.07,533.0,562.0,551.0,575.0,587.0,9,2
1350,9.38,-3.41,1.53,0.01,0.04,0.02,536.0,562.0,551.0,575.0,588.0,10,2
1351,9.28,-3.3,1.53,-0.02,0.01,0.0,535.0,563.0,551.0,575.0,589.0,10,2
1352,9.51,-3.46,1.48,0.04,0.08,0.02,536.0,562.0,550.0,575.0,589.0,10,2
1353,9.14,-3.25,1.63,0.04,0.15,0.06,533.0,562.0,549.0,575.0,589.0,10,2
1354,8.95,-3.26,1.77,-0.09,-0.01,-0.02,533.0,562.0,549.0,574.0,588.0,10,2
1355,9.06,-3.29,1.38,-0.07,0.09,0.05,533.0,562.0,549.0,573.0,588.0,10,2
1356,8.85,-3.48,1.9,0.04,0.2,0.13,534.0,562.0,549.0,573.0,588.0,10,2
1357,9.18,-3.43,1.8,-0.08,-0.07,0.02,531.0,562.0,549.0,571.0,588.0,10,2
1358,9.75,-2.29,2.77,-0.01,0.02,0.03,532.0,563.0,549.0,571.0,588.0,10,2
1359,10.67,-0.24,2.57,0.07,-0.02,-0.08,532.0,563.0,549.0,571.0,587.0,10,2
1360,9.22,-3.09,1.63,-0.04,0.09,-0.14,532.0,563.0,549.0,572.0,588.0,10,2
1361,8.13,-8.58,-0.24,-0.24,0.06,-0.23,532.0,564.0,549.0,571.0,588.0,10,2
1362,6.26,-9.48,0.2,0.29,0.48,0.16,531.0,563.0,549.0,571.0,588.0,10,2
1363,6.67,-7.08,0.55,0.24,0.32,0.39,532.0,563.0,549.0,572.0,588.0,10,2
1364,10.53,-1.37,2.25,-0.17,-0.04,0.12,533.0,563.0,550.0,572.0,588.0,10,2
1365,11.88,3.99,4.7,0.04,0.25,0.32,532.0,563.0,550.0,573.0,589.0,10,2
1366,11.92,0.96,6.24,0.19,0.46,0.16,533.0,564.0,551.0,573.0,588.0,10,2
1367,9.52,-0.14,3.47,-0.21,-0.21,-0.31,532.0,564.0,550.0,573.0,588.0,10,2
1368,9.35,-4.17,1.49,-0.43,-0.13,-0.45,533.0,563.0,550.0,573.0,589.0,10,2
1369,7.55,-10.15,-0.59,-0.47,-0.18,-0.38,531.0,564.0,550.0,572.0,588.0,10,2
1370,8.95,-10.3,0.81,0.04,0.29,0.22,531.0,564.0,549.0,572.0,588.0,10,2
1371,5.83,-7.39,-0.02,0.04,-0.19,0.23,531.0,565.0,549.0,572.0,589.0,10,2
1372,10.89,-5.32,1.62,0.07,0.25,0.5,532.0,565.0,550.0,572.0,588.0,10,2
1373,9.3,2.05,3.05,-0.08,-0.32,0.01,532.0,564.0,550.0,572.0,588.0,10,2
1374,12.66,5.41,6.22,0.04,-0.49,0.12,532.0,564.0,551.0,573.0,588.0,10,2
1375,10.43,1.04,4.79,0.1,0.1,-0.09,533.0,564.0,551.0,573.0,588.0,10,2
1376,9.98,-1.15,2.59,-0.16,-0.04,-0.25,533.0,564.0,551.0,573.0,589.0,10,2
1377,8.67,-4.79,1.19,-0.37,-0.17,-0.42,532.0,565.0,550.0,572.0,588.0,10,2
1378,7.35,-10.27,-0.37,-0.26,-0.17,-0.31,532.0,565.0,550.0,574.0,588.0,10,2
1379,6.38,-9.16,0.45,0.28,0.12,0.15,531.0,564.0,550.0,572.0,589.0,10,2
1380,6.3,-6.94,0.03,0.11,-0.07,0.3,532.0,564.0,551.0,572.0,588.0,10,2
1381,11.15,-4.44,2.14,-0.05,0.19,0.35,532.0,564.0,550.0,573.0,588.0,10,2
1382,11.77,3.34,4.47,-0.03,-0.4,0.07,532.0,564.0,551.0,573.0,589.0,10,2
1383,3.06,3.13,3.11,0.27,0.35,0.08,533.0,564.0,551.0,573.0,590.0,10,2
1384,9.48,1.95,3.7,0.01,-0.11,-0.21,532.0,565.0,551.0,573.0,589.0,10,2
1385,10.26,-2.27,2.1,-0.27,-0.04,-0.3,533.0,564.0,551.0,573.0,589.0,10,2
1386,8.63,-7.07,0.28,-0.46,-0.34,-0.52,532.0,564.0,551.0,573.0,589.0,10,2
1387,6.3,-11.67,-0.72,-0.04,0.19,-0.09,531.0,564.0,551.0,573.0,589.0,10,2
1388,5.04,-9.39,0.23,0.27,0.1,0.44,532.0,564.0,551.0,573.0,589.0,10,2
1389,8.48,-6.01,0.39,-0.0,-0.04,0.37,532.0,564.0,551.0,573.0,588.0,10,2
1390,12.2,-3.34,3.85,0.15,0.25,0.32,532.0,563.0,551.0,573.0,589.0,10,2
1391,10.95,11.49,5.98,0.18,0.03,0.19,532.0,564.0,551.0,574.0,588.0,10,2
1392,12.02,2.66,5.09,0.05,0.11,0.06,534.0,566.0,552.0,574.0,590.0,10,2
1393,10.01,-0.01,3.34,-0.03,-0.18,-0.2,533.0,565.0,551.0,574.0,589.0,10,2
1394,9.81,-4.28,1.3,-0.29,-0.06,-0.36,533.0,564.0,551.0,573.0,589.0,10,2
1395,7.99,-4.26,-0.22,-0.23,0.14,-0.39,533.0,564.0,551.0,574.0,589.0,10,2
1396,7.27,-8.59,0.81,0.09,0.18,0.22,533.0,565.0,550.0,573.0,589.0,10,2
1397,5.14,-7.56,0.41,0.13,0.11,0.32,532.0,564.0,551.0,574.0,589.0,10,2
1398,10.47,-5.1,0.98,-0.07,0.16,0.44,533.0,564.0,551.0,573.0,589.0,10,2
1399,7.48,0.59,3.18,0.24,0.02,0.11,533.0,564.0,552.0,573.0,589.0,10,2
1400,13.63,5.66,6.09,0.15,0.67,-0.2,534.0,565.0,551.0,573.0,589.0,10,2
1401,11.68,1.29,5.34,0.06,-0.07,-0.01,533.0,564.0,552.0,575.0,590.0,10,2
1402,9.75,-0.96,2.56,-0.08,0.01,-0.25,533.0,565.0,552.0,574.0,589.0,10,2
1403,9.25,-5.38,1.09,-0.35,-0.24,-0.46,533.0,564.0,551.0,575.0,590.0,10,2
1404,6.77,-9.8,-0.13,-0.25,-0.15,-0.31,532.0,564.0,551.0,574.0,589.0,10,2
1405,6.51,-10.2,0.56,0.29,0.12,0.17,532.0,564.0,551.0,574.0,588.0,10,2
1406,5.62,-7.07,-0.23,0.06,-0.13,0.26,532.0,564.0,551.0,574.0,589.0,10,2
1407,10.78,-5.1,1.52,0.12,0.46,0.59,532.0,564.0,551.0,574.0,589.0,10,2
1408,9.08,1.56,3.51,0.03,-0.34,0.03,533.0,564.0,552.0,574.0,590.0,10,2
1409,12.27,6.27,6.0,0.19,-0.11,0.02,533.0,565.0,551.0,574.0,589.0,10,2
1410,10.71,1.81,5.21,0.18,-0.01,-0.07,533.0,564.0,552.0,574.0,590.0,10,2
1411,9.54,-1.21,2.56,-0.14,-0.08,-0.29,533.0,564.0,551.0,575.0,590.0,10,2
1412,9.17,-5.52,1.18,-0.3,-0.13,-0.43,531.0,564.0,552.0,574.0,589.0,10,2
1413,7.35,-9.72,-0.32,-0.27,-0.12,-0.35,533.0,564.0,552.0,573.0,589.0,10,2
1414,6.71,-10.06,0.76,-0.0,0.01,0.19,533.0,564.0,551.0,573.0,589.0,10,2
1415,5.95,-7.11,0.2,0.21,0.08,0.41,533.0,564.0,552.0,573.0,589.0,10,2
1416,10.95,-5.37,1.82,-0.12,0.03,0.39,533.0,565.0,552.0,573.0,590.0,10,2
1417,8.34,1.41,3.43,0.12,-0.11,0.09,533.0,565.0,552.0,573.0,589.0,10,2
1418,10.37,5.66,4.96,0.23,0.35,0.15,533.0,565.0,552.0,574.0,590.0,10,2
1419,9.94,1.85,4.75,0.14,-0.01,-0.04,533.0,565.0,553.0,574.0,590.0,10,2
1420,9.9,-0.95,2.97,-0.19,-0.06,-0.24,533.0,565.0,552.0,573.0,590.0,10,2
1421,9.02,-5.03,1.72,-0.36,-0.18,-0.48,533.0,566.0,552.0,574.0,590.0,10,2
1422,7.03,-9.43,-0.55,-0.11,-0.31,-0.45,533.0,566.0,552.0,573.0,590.0,10,2
1423,8.78,-8.03,0.45,-0.08,-0.14,-0.14,531.0,563.0,552.0,572.0,589.0,10,2
1424,6.31,-7.5,-0.26,0.1,0.03,0.37,532.0,565.0,552.0,572.0,590.0,10,2
1425,10.37,-6.1,1.3,-0.05,0.33,0.49,532.0,565.0,551.0,572.0,589.0,10,2
1426,7.37,0.19,3.03,0.1,-0.14,0.11,532.0,564.0,551.0,573.0,590.0,10,2
1427,13.36,6.14,5.73,-0.04,-0.89,-0.13,532.0,565.0,552.0,573.0,590.0,10,2
1428,11.35,1.5,6.19,0.12,0.1,0.1,533.0,566.0,552.0,573.0,590.0,10,2
1429,9.94,-0.08,3.04,-0.14,-0.24,-0.27,532.0,565.0,553.0,573.0,590.0,10,2
1430,9.09,-4.9,1.48,-0.31,0.01,-0.34,532.0,564.0,552.0,573.0,590.0,10,2
1431,7.88,-10.35,-0.81,-0.42,-0.16,-0.41,531.0,565.0,551.0,574.0,589.0,10,2
1432,8.47,-9.52,0.39,0.2,0.13,-0.1,531.0,565.0,551.0,573.0,590.0,10,2
1433,5.9,-6.92,-0.2,0.18,0.19,0.41,532.0,565.0,552.0,573.0,589.0,10,2
1434,10.84,-5.74,1.83,-0.03,0.28,0.47,533.0,565.0,552.0,573.0,590.0,10,2
1435,8.3,1.13,3.43,-0.11,-0.3,0.04,533.0,564.0,553.0,574.0,590.0,10,2
1436,9.66,6.37,4.9,-0.14,-0.51,-0.13,533.0,565.0,552.0,574.0,590.0,10,2
1437,11.03,1.69,5.19,0.14,0.08,-0.14,533.0,565.0,553.0,574.0,590.0,10,2
1438,9.66,-0.65,2.57,-0.17,-0.05,-0.25,533.0,565.0,553.0,574.0,590.0,10,2
1439,9.05,-5.47,1.11,-0.44,-0.13,-0.49,533.0,565.0,553.0,574.0,590.0,10,2
1440,6.97,-11.15,-0.88,-0.26,-0.11,-0.34,533.0,565.0,553.0,574.0,590.0,10,2
1441,6.55,-8.16,-0.12,0.27,0.16,0.27,533.0,564.0,553.0,573.0,590.0,10,2
1442,6.96,-7.01,1.48,0.34,-0.37,0.38,532.0,565.0,552.0,574.0,590.0,10,2
1443,11.33,-4.02,2.68,-0.02,0.09,0.34,532.0,565.0,552.0,574.0,589.0,10,2
1444,9.76,1.29,3.64,0.0,0.06,0.16,533.0,565.0,553.0,573.0,590.0,10,2
1445,11.22,4.66,5.15,0.06,-0.23,0.02,533.0,566.0,552.0,574.0,590.0,10,2
1446,10.56,1.27,4.34,0.12,-0.02,-0.17,533.0,565.0,553.0,574.0,590.0,10,2
1447,9.9,-1.25,2.36,-0.16,-0.11,-0.26,533.0,565.0,553.0,573.0,590.0,10,2
1448,8.72,-5.89,1.14,-0.29,-0.15,-0.42,533.0,565.0,552.0,574.0,590.0,10,2
1449,6.37,-10.74,-0.65,-0.2,-0.11,-0.28,533.0,565.0,552.0,574.0,590.0,10,2
1450,6.07,-9.66,0.18,0.24,0.09,0.24,532.0,566.0,552.0,574.0,590.0,10,2
1451,6.53,-6.44,0.06,0.06,0.05,0.36,533.0,565.0,552.0,574.0,590.0,10,2
1452,10.86,-4.02,2.6,-0.05,0.38,0.44,533.0,564.0,552.0,574.0,589.0,10,2
1453,9.56,1.98,3.74,-0.12,-0.29,-0.02,533.0,565.0,553.0,574.0,590.0,10,2
1454,11.65,5.0,4.61,0.2,0.04,0.05,534.0,565.0,553.0,574.0,590.0,10,2
1455,10.2,1.23,4.31,0.13,-0.2,-0.14,534.0,565.0,553.0,574.0,590.0,10,2
1456,9.86,-1.49,2.76,-0.1,-0.04,-0.21,534.0,565.0,553.0,574.0,590.0,10,2
1457,8.78,-5.34,1.71,-0.29,-0.18,-0.43,533.0,565.0,553.0,574.0,590.0,10,2
1458,7.16,-9.11,-0.23,-0.19,-0.17,-0.34,533.0,565.0,553.0,574.0,590.0,10,2
1459,10.12,-6.63,0.21,0.0,-0.25,-0.19,533.0,565.0,553.0,574.0,590.0,10,2
1460,6.42,-6.73,0.61,0.22,0.22,0.4,533.0,566.0,552.0,574.0,590.0,10,2
1461,9.26,-4.7,1.25,-0.07,0.1,0.38,534.0,564.0,553.0,574.0,590.0,10,2
1462,11.01,-2.19,3.93,-0.01,0.03,0.22,534.0,565.0,552.0,574.0,590.0,10,2
1463,8.26,7.53,2.6,-0.01,0.29,-0.1,535.0,565.0,554.0,574.0,591.0,10,2
1464,10.31,0.28,5.15,-0.03,-0.03,0.05,534.0,565.0,553.0,574.0,590.0,10,2
1465,10.28,0.48,3.45,-0.05,-0.17,-0.19,534.0,565.0,554.0,574.0,591.0,10,2
1466,9.56,-2.46,2.68,-0.16,-0.07,-0.25,534.0,565.0,553.0,574.0,590.0,10,2
1467,8.36,-6.22,0.99,-0.25,-0.12,-0.43,533.0,565.0,553.0,574.0,590.0,10,2
1468,6.1,-11.31,-0.26,-0.07,0.08,-0.15,534.0,565.0,553.0,574.0,590.0,10,2
1469,5.31,-8.24,-0.01,0.23,0.07,0.31,533.0,565.0,552.0,573.0,591.0,10,2
1470,7.85,-5.41,0.39,0.07,-0.13,0.15,533.0,565.0,552.0,574.0,590.0,10,2
1471,12.25,-3.89,3.78,0.11,0.29,0.49,535.0,565.0,552.0,573.0,590.0,10,2
1472,11.23,1.56,5.0,-0.17,-0.28,0.07,533.0,566.0,553.0,574.0,590.0,10,2
1473,9.49,4.14,4.34,0.08,-0.07,0.05,535.0,565.0,553.0,574.0,590.0,10,2
1474,9.53,0.91,3.75,-0.0,-0.37,-0.2,535.0,565.0,553.0,574.0,591.0,10,2
1475,10.0,-3.36,2.23,-0.23,-0.13,-0.32,534.0,565.0,553.0,575.0,590.0,10,2
1476,8.13,-7.42,0.45,-0.34,-0.29,-0.52,534.0,566.0,553.0,575.0,590.0,10,2
1477,5.99,-10.84,-0.91,-0.04,0.02,-0.1,533.0,565.0,552.0,574.0,590.0,10,2
1478,5.91,-8.4,0.06,0.26,0.08,0.33,533.0,565.0,552.0,574.0,590.0,10,2
1479,7.96,-6.25,0.77,0.04,-0.02,0.34,534.0,565.0,552.0,574.0,590.0,10,2
1480,11.37,-2.87,3.47,0.01,0.11,0.35,534.0,564.0,552.0,574.0,591.0,10,2
1481,11.41,3.25,4.88,-0.14,-0.31,0.39,534.0,565.0,553.0,574.0,590.0,10,2
1482,11.67,1.06,5.91,-0.08,0.06,-0.03,533.0,566.0,553.0,574.0,590.0,10,2
1483,10.15,0.77,3.77,0.01,-0.11,-0.14,534.0,566.0,553.0,574.0,591.0,10,2
1484,9.94,-2.97,2.33,-0.29,-0.15,-0.42,533.0,565.0,552.0,575.0,590.0,10,2
1485,7.85,-6.63,0.93,-0.39,-0.24,-0.57,533.0,565.0,553.0,574.0,590.0,10,2
1486,6.77,-10.93,-0.89,-0.17,-0.27,-0.29,533.0,564.0,553.0,574.0,590.0,10,2
1487,4.8,-9.0,-0.22,0.41,0.24,0.39,532.0,565.0,552.0,574.0,590.0,10,2
1488,6.98,-6.59,-0.18,0.08,0.16,0.49,533.0,564.0,552.0,574.0,590.0,10,2
1489,11.78,-4.14,2.43,-0.08,0.16,0.49,534.0,565.0,552.0,574.0,590.0,10,2
1490,8.65,0.81,4.18,0.06,0.05,0.29,533.0,566.0,552.0,574.0,590.0,10,2
1491,10.43,5.71,5.54,-0.06,0.25,-0.13,534.0,566.0,552.0,574.0,591.0,10,2
1492,10.38,2.03,4.58,0.2,-0.07,-0.11,535.0,565.0,553.0,575.0,590.0,10,2
1493,10.26,-1.02,3.2,-0.19,-0.2,-0.29,534.0,565.0,553.0,575.0,591.0,10,2
1494,9.81,-5.07,1.81,-0.33,-0.23,-0.55,533.0,566.0,553.0,575.0,591.0,10,2
1495,5.99,-17.38,0.53,-0.63,-0.37,-0.44,533.0,566.0,552.0,575.0,590.0,10,2
1496,8.07,-9.2,-0.01,0.03,-0.13,-0.02,533.0,565.0,553.0,574.0,591.0,10,2
1497,5.29,-7.07,0.05,0.14,0.11,0.4,533.0,565.0,553.0,574.0,590.0,10,2
1498,9.85,-4.98,1.49,-0.03,0.17,0.53,533.0,565.0,552.0,575.0,590.0,10,2
1499,11.64,-1.23,4.73,0.14,0.15,0.21,535.0,565.0,553.0,574.0,591.0,10,2
1500,8.74,-3.68,2.62,0.04,0.02,0.06,521.0,542.0,530.0,559.0,485.0,11,2
1501,8.43,-3.69,2.83,-0.12,-0.1,-0.0,522.0,543.0,530.0,558.0,485.0,11,2
1502,8.8,-3.9,2.6,-0.13,-0.13,-0.01,522.0,543.0,529.0,558.0,484.0,11,2
1503,8.57,-3.74,2.35,-0.09,-0.11,0.03,521.0,543.0,528.0,556.0,484.0,11,2
1504,8.58,-3.69,2.21,0.04,0.13,0.08,520.0,542.0,525.0,553.0,483.0,11,2
1505,8.81,-3.3,2.59,-0.1,-0.14,0.0,520.0,543.0,525.0,552.0,483.0,11,2
1506,9.98,-2.81,3.27,-0.06,-0.01,0.02,519.0,545.0,525.0,552.0,484.0,11,2
1507,9.88,-0.13,4.69,0.11,0.08,0.0,519.0,546.0,526.0,551.0,483.0,11,2
1508,9.05,-1.06,2.21,-0.09,0.08,-0.13,518.0,546.0,527.0,551.0,483.0,11,2
1509,8.26,-6.78,1.25,-0.17,0.04,-0.25,518.0,546.0,525.0,553.0,483.0,11,2
1510,6.18,-9.31,0.64,-0.17,-0.06,-0.14,517.0,546.0,524.0,552.0,484.0,11,2
1511,6.42,-6.98,0.67,-0.0,0.09,0.11,517.0,546.0,525.0,551.0,484.0,11,2
1512,7.49,-7.5,1.05,0.07,0.24,0.21,517.0,546.0,525.0,552.0,484.0,11,2
1513,10.08,-2.31,2.61,-0.25,0.3,0.19,518.0,547.0,526.0,551.0,484.0,11,2
1514,9.83,6.3,8.48,-0.13,-0.17,-0.17,518.0,548.0,526.0,552.0,485.0,11,2
1515,10.89,2.17,5.91,0.01,-0.15,-0.33,519.0,548.0,527.0,554.0,485.0,11,2
1516,9.62,-2.02,2.23,0.03,0.02,-0.27,518.0,548.0,527.0,554.0,486.0,11,2
1517,8.87,-8.75,1.08,0.1,-0.25,-0.38,517.0,547.0,527.0,554.0,486.0,11,2
1518,8.17,-9.8,0.28,-0.26,-0.18,0.1,516.0,549.0,527.0,554.0,486.0,11,2
1519,5.23,-7.42,0.55,0.03,0.11,0.27,517.0,550.0,528.0,554.0,486.0,11,2
1520,10.29,-5.17,1.65,-0.16,0.18,0.35,517.0,549.0,528.0,554.0,487.0,11,2
1521,10.61,2.25,5.55,-0.29,-0.43,-0.06,519.0,549.0,529.0,555.0,486.0,11,2
1522,4.93,3.02,5.76,0.35,0.21,-0.05,519.0,550.0,530.0,554.0,487.0,11,2
1523,10.14,1.76,4.79,0.15,-0.07,-0.14,519.0,551.0,530.0,556.0,487.0,11,2
1524,9.3,-3.1,2.48,0.08,-0.02,-0.22,519.0,550.0,530.0,555.0,488.0,11,2
1525,7.31,-8.9,0.49,-0.2,-0.28,-0.47,518.0,550.0,529.0,556.0,487.0,11,2
1526,5.64,-11.37,-0.58,0.01,0.0,-0.04,518.0,550.0,530.0,556.0,488.0,11,2
1527,5.66,-8.84,0.79,0.07,0.15,0.32,517.0,551.0,530.0,556.0,487.0,11,2
1528,9.12,-6.0,1.28,-0.29,-0.1,0.25,518.0,550.0,530.0,555.0,487.0,11,2
1529,9.34,-0.32,3.63,-0.06,0.08,0.15,518.0,550.0,530.0,556.0,488.0,11,2
1530,11.92,7.17,6.34,-0.14,-0.23,-0.17,519.0,551.0,530.0,556.0,487.0,11,2
1531,11.57,2.56,6.45,0.1,-0.06,-0.04,520.0,550.0,531.0,556.0,488.0,11,2
1532,9.9,-1.18,3.01,-0.07,-0.41,-0.39,518.0,551.0,532.0,557.0,489.0,11,2
1533,7.39,-8.74,-0.85,-0.3,-0.47,-0.58,518.0,551.0,531.0,557.0,489.0,11,2
1534,6.14,-12.98,-1.37,-0.01,-0.0,-0.04,519.0,550.0,532.0,557.0,488.0,11,2
1535,5.08,-8.57,0.43,0.16,0.06,0.26,518.0,551.0,531.0,557.0,488.0,11,2
1536,9.22,-4.95,0.95,0.13,0.46,0.46,519.0,551.0,532.0,557.0,488.0,11,2
1537,11.39,0.48,4.33,-0.19,0.02,0.11,519.0,552.0,532.0,558.0,489.0,11,2
1538,11.96,7.37,5.98,-0.06,-0.38,-0.19,520.0,552.0,533.0,558.0,489.0,11,2
1539,12.03,1.75,5.22,0.03,-0.01,0.06,519.0,552.0,533.0,558.0,490.0,11,2
1540,9.72,-2.53,2.85,-0.14,-0.18,-0.38,519.0,553.0,534.0,558.0,490.0,11,2
1541,8.07,-8.73,-0.62,-0.37,-0.32,-0.58,519.0,552.0,533.0,558.0,489.0,11,2
1542,5.75,-12.18,-0.7,0.11,0.09,0.04,517.0,552.0,533.0,558.0,490.0,11,2
1543,5.03,-8.67,0.3,0.29,0.19,0.37,517.0,552.0,532.0,558.0,489.0,11,2
1544,8.7,-5.98,0.96,0.09,0.4,0.56,519.0,551.0,533.0,558.0,490.0,11,2
1545,10.81,-0.76,3.78,-0.09,0.04,0.2,520.0,552.0,533.0,558.0,490.0,11,2
1546,12.04,7.45,6.43,-0.11,-0.19,-0.04,521.0,552.0,534.0,559.0,490.0,11,2
1547,11.44,2.72,6.14,-0.09,-0.0,-0.02,521.0,552.0,534.0,559.0,491.0,11,2
1548,10.49,-0.81,3.13,-0.18,-0.41,-0.43,520.0,552.0,534.0,559.0,491.0,11,2
1549,8.43,-6.12,0.15,-0.27,-0.32,-0.55,520.0,552.0,534.0,559.0,491.0,11,2
1550,6.34,-12.47,-0.75,-0.04,-0.07,-0.17,519.0,552.0,533.0,559.0,491.0,11,2
1551,4.75,-9.55,0.21,0.15,-0.08,0.21,518.0,553.0,534.0,559.0,491.0,11,2
1552,7.85,-6.78,-0.35,0.11,0.31,0.48,518.0,553.0,534.0,559.0,491.0,11,2
1553,11.03,-2.92,2.43,-0.08,-0.01,0.33,520.0,552.0,534.0,559.0,491.0,11,2
1554,11.67,6.24,5.83,0.01,0.2,0.19,520.0,552.0,534.0,559.0,491.0,11,2
1555,10.03,3.67,6.64,-0.05,0.04,-0.01,520.0,553.0,535.0,559.0,492.0,11,2
1556,11.45,0.8,3.77,-0.11,-0.4,-0.36,520.0,553.0,535.0,559.0,492.0,11,2
1557,9.23,-3.6,0.9,-0.12,-0.15,-0.44,520.0,553.0,535.0,559.0,492.0,11,2
1558,7.6,-11.23,-0.95,-0.25,-0.35,-0.4,518.0,552.0,534.0,559.0,492.0,11,2
1559,8.47,-9.0,-0.12,-0.23,0.03,0.29,519.0,553.0,534.0,559.0,490.0,11,2
1560,6.47,-7.66,0.02,0.06,0.08,0.37,519.0,553.0,535.0,560.0,492.0,11,2
1561,10.22,-4.93,1.21,0.11,0.4,0.59,519.0,553.0,534.0,560.0,492.0,11,2
1562,11.07,1.73,5.14,-0.01,0.21,0.19,520.0,552.0,535.0,560.0,492.0,11,2
1563,10.86,6.09,5.41,0.14,-0.15,-0.09,520.0,552.0,535.0,559.0,492.0,11,2
1564,11.01,1.89,4.58,0.03,-0.02,-0.06,521.0,553.0,536.0,559.0,492.0,11,2
1565,9.68,-1.74,2.49,-0.11,-0.28,-0.38,520.0,553.0,536.0,560.0,493.0,11,2
1566,7.95,-7.91,-0.15,-0.32,-0.3,-0.5,518.0,553.0,536.0,560.0,492.0,11,2
1567,6.89,-12.35,0.23,0.02,-0.12,-0.02,518.0,553.0,535.0,560.0,492.0,11,2
1568,5.3,-9.16,0.73,0.25,0.11,0.32,517.0,553.0,535.0,560.0,492.0,11,2
1569,8.34,-5.72,0.41,0.05,0.3,0.5,518.0,552.0,536.0,560.0,492.0,11,2
1570,10.83,-1.41,3.22,0.11,0.38,0.43,520.0,553.0,535.0,560.0,492.0,11,2
1571,12.05,5.82,6.52,-0.09,-0.14,-0.0,519.0,553.0,535.0,560.0,492.0,11,2
1572,10.74,3.34,5.52,-0.15,-0.17,-0.1,520.0,553.0,536.0,560.0,493.0,11,2
1573,10.19,-0.33,3.23,-0.06,-0.26,-0.23,519.0,553.0,536.0,559.0,493.0,11,2
1574,8.49,-6.16,0.55,-0.24,-0.26,-0.46,519.0,552.0,536.0,560.0,492.0,11,2
1575,6.06,-12.41,-0.78,-0.13,-0.19,-0.22,518.0,553.0,536.0,560.0,493.0,11,2
1576,4.92,-9.33,0.55,0.08,-0.03,0.2,519.0,553.0,535.0,560.0,491.0,11,2
1577,8.03,-6.3,0.21,0.15,0.47,0.45,519.0,553.0,535.0,560.0,492.0,11,2
1578,10.27,-2.41,2.58,0.03,0.12,0.33,519.0,553.0,536.0,560.0,493.0,11,2
1579,11.2,4.72,5.53,-0.08,-0.04,0.05,520.0,553.0,537.0,560.0,493.0,11,2
1580,10.27,2.94,5.39,-0.16,-0.08,-0.07,520.0,554.0,537.0,560.0,493.0,11,2
1581,10.91,0.08,3.83,-0.08,-0.35,-0.24,520.0,553.0,537.0,560.0,494.0,11,2
1582,9.0,-3.15,1.89,-0.1,-0.16,-0.33,519.0,554.0,536.0,560.0,493.0,11,2
1583,8.59,-7.7,0.51,-0.24,-0.31,-0.43,519.0,553.0,537.0,560.0,494.0,11,2
1584,6.38,-9.61,-2.15,-0.3,0.01,-0.05,519.0,553.0,536.0,561.0,492.0,11,2
1585,5.61,-8.13,0.03,0.26,0.36,0.38,518.0,553.0,536.0,560.0,493.0,11,2
1586,9.1,-5.8,1.06,-0.12,-0.03,0.34,519.0,553.0,536.0,560.0,492.0,11,2
1587,10.05,-0.4,3.05,-0.01,0.25,0.3,519.0,554.0,537.0,560.0,493.0,11,2
1588,12.29,5.56,6.34,-0.14,-0.02,-0.03,520.0,553.0,537.0,560.0,493.0,11,2
1589,10.95,3.17,4.98,0.02,-0.01,-0.16,520.0,553.0,538.0,560.0,494.0,11,2
1590,10.54,-0.85,2.79,-0.08,-0.22,-0.28,521.0,553.0,537.0,560.0,494.0,11,2
1591,8.36,-6.31,0.62,-0.23,-0.28,-0.5,519.0,554.0,537.0,561.0,493.0,11,2
1592,6.76,-11.56,-0.04,-0.07,-0.1,-0.16,520.0,553.0,537.0,561.0,493.0,11,2
1593,4.5,-8.95,0.63,0.03,-0.08,0.17,519.0,554.0,537.0,560.0,492.0,11,2
1594,7.96,-6.68,0.51,0.13,0.41,0.51,519.0,553.0,536.0,560.0,493.0,11,2
1595,10.01,-2.54,2.87,-0.11,0.05,0.33,519.0,554.0,537.0,560.0,492.0,11,2
1596,14.27,4.8,5.43,-0.22,0.1,0.03,521.0,554.0,537.0,561.0,494.0,11,2
1597,10.48,3.8,5.42,0.01,-0.07,-0.01,521.0,553.0,538.0,561.0,494.0,11,2
1598,11.03,-0.02,3.68,-0.07,-0.31,-0.19,520.0,554.0,538.0,561.0,493.0,11,2
1599,8.69,-4.51,1.6,-0.11,-0.07,-0.43,520.0,554.0,538.0,561.0,494.0,11,2
1600,7.51,-9.24,-0.31,-0.33,-0.36,-0.47,520.0,554.0,537.0,561.0,494.0,11,2
1601,7.71,-8.52,0.16,-0.02,0.16,0.29,520.0,553.0,537.0,561.0,493.0,11,2
1602,6.11,-7.56,0.29,0.2,0.37,0.42,520.0,554.0,537.0,561.0,493.0,11,2
1603,9.02,-5.37,1.36,-0.07,0.12,0.4,521.0,553.0,538.0,561.0,494.0,11,2
1604,11.93,1.0,3.78,-0.11,0.3,0.27,521.0,553.0,538.0,561.0,494.0,11,2
1605,11.32,6.03,6.14,0.02,-0.09,-0.01,521.0,553.0,538.0,561.0,494.0,11,2
1606,11.79,1.53,5.0,-0.1,-0.23,-0.13,521.0,554.0,538.0,561.0,495.0,11,2
1607,9.63,-1.56,2.43,-0.07,-0.24,-0.34,521.0,555.0,538.0,561.0,494.0,11,2
1608,8.98,-6.74,0.92,-0.27,-0.35,-0.47,521.0,555.0,538.0,561.0,495.0,11,2
1609,6.37,-10.75,-0.45,-0.08,-0.23,-0.26,521.0,553.0,538.0,561.0,494.0,11,2
1610,4.7,-8.49,-0.08,0.19,0.14,0.25,519.0,553.0,537.0,562.0,494.0,11,2
1611,8.69,-5.69,-0.22,-0.2,0.01,0.35,518.0,553.0,539.0,562.0,495.0,11,2
1612,10.51,-1.89,3.4,0.2,0.6,0.59,519.0,554.0,538.0,561.0,495.0,11,2
1613,11.5,5.06,5.95,-0.05,-0.06,-0.06,520.0,554.0,539.0,562.0,495.0,11,2
1614,10.74,2.66,4.72,0.01,-0.04,-0.06,521.0,554.0,539.0,561.0,495.0,11,2
1615,10.0,-0.9,2.64,-0.03,-0.34,-0.3,522.0,554.0,539.0,561.0,495.0,11,2
1616,8.68,-4.2,0.67,-0.24,-0.28,-0.42,521.0,554.0,539.0,562.0,495.0,11,2
1617,7.31,-9.17,-0.32,-0.29,-0.36,-0.32,520.0,554.0,538.0,562.0,495.0,11,2
1618,7.58,-9.11,0.4,0.16,0.07,0.17,521.0,554.0,538.0,561.0,494.0,11,2
1619,6.64,-7.45,0.15,0.2,0.31,0.41,520.0,554.0,539.0,562.0,494.0,11,2
1620,10.04,-4.16,1.24,0.02,0.43,0.46,520.0,554.0,539.0,562.0,495.0,11,2
1621,11.24,2.43,4.98,0.02,0.24,0.18,521.0,554.0,539.0,561.0,497.0,11,2
1622,8.78,4.04,5.77,0.28,-0.09,-0.17,521.0,554.0,539.0,561.0,495.0,11,2
1623,11.08,1.23,3.82,-0.04,-0.23,-0.21,522.0,554.0,540.0,562.0,496.0,11,2
1624,9.74,-2.53,1.8,-0.26,-0.26,-0.35,521.0,554.0,540.0,562.0,496.0,11,2
1625,8.25,-7.36,0.07,-0.41,-0.59,-0.56,520.0,554.0,539.0,562.0,495.0,11,2
1626,6.22,-11.36,-0.65,0.02,0.07,-0.0,520.0,554.0,539.0,562.0,496.0,11,2
1627,5.55,-8.31,0.5,0.21,0.11,0.26,520.0,553.0,539.0,562.0,495.0,11,2
1628,8.37,-5.53,0.57,0.11,0.36,0.48,520.0,554.0,539.0,562.0,495.0,11,2
1629,11.36,-1.79,3.39,0.1,0.37,0.41,521.0,553.0,539.0,562.0,495.0,11,2
1630,11.17,5.01,5.34,0.02,0.38,-0.06,521.0,554.0,540.0,562.0,496.0,11,2
1631,11.12,3.35,4.85,0.01,-0.05,-0.02,520.0,555.0,540.0,562.0,496.0,11,2
1632,10.17,-0.1,3.17,-0.02,-0.38,-0.29,522.0,554.0,540.0,562.0,496.0,11,2
1633,8.38,-4.08,1.31,-0.14,-0.11,-0.34,521.0,554.0,539.0,562.0,496.0,11,2
1634,7.75,-9.85,-0.54,-0.18,-0.28,-0.34,521.0,554.0,539.0,562.0,496.0,11,2
1635,6.4,-9.37,0.43,0.23,0.14,0.18,519.0,553.0,539.0,562.0,495.0,11,2
1636,6.54,-6.79,0.09,0.02,0.24,0.4,520.0,554.0,539.0,562.0,495.0,11,2
1637,10.54,-4.37,1.88,-0.04,0.58,0.58,520.0,554.0,539.0,562.0,496.0,11,2
1638,9.8,1.93,4.97,-0.04,-0.26,-0.12,520.0,554.0,539.0,562.0,496.0,11,2
1639,12.04,5.57,4.86,-0.02,0.03,-0.0,520.0,554.0,540.0,562.0,496.0,11,2
1640,10.99,1.57,4.56,0.07,-0.3,-0.18,521.0,554.0,540.0,562.0,496.0,11,2
1641,9.32,-1.37,2.32,-0.07,-0.2,-0.29,521.0,554.0,540.0,562.0,496.0,11,2
1642,8.6,-6.65,1.33,-0.21,-0.26,-0.46,521.0,553.0,540.0,562.0,496.0,11,2
1643,6.59,-10.79,-0.78,-0.16,-0.36,-0.31,521.0,554.0,539.0,563.0,496.0,11,2
1644,5.33,-8.85,0.36,0.27,0.25,0.38,520.0,554.0,539.0,562.0,495.0,11,2
1645,7.55,-6.52,0.39,0.0,0.17,0.47,521.0,554.0,539.0,562.0,496.0,11,2
1646,11.22,-3.4,2.46,-0.04,0.53,0.55,522.0,554.0,539.0,562.0,496.0,11,2
1647,9.19,4.43,5.0,-0.17,-0.14,-0.07,522.0,554.0,540.0,562.0,496.0,11,2
1648,8.36,2.75,4.66,0.23,0.12,0.01,522.0,554.0,540.0,562.0,496.0,11,2
1649,10.14,1.19,4.13,-0.07,-0.37,-0.23,521.0,555.0,541.0,562.0,496.0,11,2
1650,9.02,-3.38,1.79,0.02,0.03,0.02,524.0,553.0,541.0,564.0,496.0,12,2
1651,9.12,-3.46,1.99,0.06,0.12,0.05,523.0,554.0,540.0,563.0,496.0,12,2
1652,8.65,-3.4,2.26,-0.01,0.04,0.01,523.0,553.0,540.0,564.0,496.0,12,2
1653,8.87,-3.26,1.95,-0.11,0.1,-0.01,522.0,554.0,538.0,563.0,495.0,12,2
1654,8.67,-3.12,1.74,0.04,0.24,0.07,522.0,553.0,538.0,562.0,494.0,12,2
1655,8.83,-3.2,2.03,0.01,0.25,0.08,522.0,554.0,537.0,561.0,493.0,12,2
1656,9.33,-3.76,2.37,0.1,0.32,0.14,522.0,555.0,535.0,560.0,493.0,12,2
1657,8.63,-3.51,3.17,0.24,0.5,0.25,521.0,555.0,535.0,558.0,491.0,12,2
1658,8.24,-3.36,3.13,-0.18,-0.34,-0.16,520.0,554.0,534.0,558.0,491.0,12,2
1659,9.1,-2.94,1.32,0.14,0.22,0.11,521.0,555.0,534.0,557.0,491.0,12,2
1660,9.39,-3.62,2.59,0.14,0.23,0.21,521.0,555.0,535.0,559.0,491.0,12,2
1661,8.71,-2.81,3.99,-0.03,-0.07,0.01,521.0,556.0,535.0,558.0,491.0,12,2
1662,10.19,-0.93,4.16,0.16,-0.07,-0.09,521.0,556.0,535.0,559.0,491.0,12,2
1663,7.52,-1.92,2.48,0.09,-0.14,-0.19,521.0,556.0,536.0,559.0,491.0,12,2
1664,8.14,-7.56,1.34,0.08,0.16,-0.04,521.0,556.0,537.0,560.0,492.0,12,2
1665,7.75,-7.81,1.69,-0.01,-0.12,0.01,520.0,556.0,536.0,560.0,492.0,12,2
1666,6.31,-5.02,1.07,-0.13,-0.23,0.02,521.0,555.0,537.0,560.0,493.0,12,2
1667,10.04,-2.65,1.91,-0.15,0.2,0.29,521.0,556.0,536.0,560.0,493.0,12,2
