Index,AccelX,AccelY,AccelZ,GyroX,GyroY,GyroZ,Finger1,Finger2,Finger3,Finger4,Finger5,Iteration,Gesture
0,-3.56,7.4,3.86,-0.01,-0.02,0.01,640.0,581.0,568.0,578.0,529.0,1,3
1,-3.56,7.4,3.78,0.0,-0.09,0.01,639.0,580.0,569.0,578.0,528.0,1,3
2,-3.74,7.46,4.07,0.01,-0.12,0.02,639.0,582.0,569.0,578.0,529.0,1,3
3,-3.31,7.33,4.1,-0.09,-0.01,0.09,639.0,582.0,570.0,578.0,528.0,1,3
4,-2.99,7.62,3.97,-0.15,0.08,0.13,639.0,581.0,569.0,578.0,528.0,1,3
5,-2.81,7.63,3.91,-0.35,0.44,0.23,639.0,583.0,570.0,579.0,529.0,1,3
6,-2.78,7.49,3.89,-0.36,0.85,0.28,638.0,588.0,572.0,580.0,528.0,1,3
7,-4.86,7.6,4.06,-0.44,0.94,0.32,638.0,603.0,575.0,580.0,527.0,1,3
8,-3.86,6.7,4.29,-0.6,0.61,0.29,638.0,614.0,578.0,581.0,527.0,1,3
9,-3.63,6.99,4.05,-0.65,0.59,0.27,639.0,615.0,578.0,581.0,527.0,1,3
10,-3.32,6.96,4.7,-0.36,0.81,0.32,640.0,607.0,577.0,584.0,529.0,1,3
11,-4.74,6.07,5.53,-0.46,1.16,0.4,643.0,600.0,577.0,594.0,535.0,1,3
12,-5.62,6.34,3.61,-0.19,0.35,0.22,642.0,595.0,578.0,601.0,537.0,1,3
13,-5.78,6.85,3.46,0.59,-1.3,-0.27,641.0,595.0,581.0,607.0,536.0,1,3
14,-6.32,6.27,2.86,1.0,-5.01,-1.22,619.0,580.0,570.0,592.0,523.0,1,3
15,-1.68,7.51,4.19,1.02,-5.36,-1.69,574.0,566.0,557.0,577.0,514.0,1,3
16,0.15,7.81,4.61,1.36,-3.59,-1.6,557.0,566.0,559.0,573.0,504.0,1,3
17,1.06,9.29,3.86,1.05,-1.6,-0.65,564.0,578.0,571.0,575.0,505.0,1,3
18,0.27,9.51,4.98,0.14,1.12,-0.15,580.0,621.0,619.0,595.0,533.0,1,3
19,-1.54,6.86,2.89,0.13,1.64,0.33,582.0,640.0,657.0,626.0,545.0,1,3
20,-1.51,8.79,3.95,-1.03,1.88,0.65,577.0,642.0,665.0,637.0,556.0,1,3
21,-2.16,7.62,3.7,-1.23,1.51,0.85,591.0,640.0,651.0,635.0,561.0,1,3
22,-3.66,6.47,5.06,-1.31,2.58,0.68,606.0,625.0,619.0,624.0,562.0,1,3
23,-3.99,7.51,4.35,-1.2,1.93,0.56,623.0,611.0,600.0,614.0,547.0,1,3
24,-3.4,6.94,3.64,-0.6,0.81,0.41,632.0,604.0,593.0,616.0,547.0,1,3
25,-4.43,6.45,5.48,-0.48,0.97,0.49,637.0,604.0,595.0,616.0,550.0,1,3
26,-4.5,6.12,5.43,-0.66,0.97,0.54,638.0,601.0,593.0,618.0,550.0,1,3
27,-4.45,6.54,4.47,0.05,-0.53,0.02,639.0,595.0,592.0,615.0,550.0,1,3
28,-4.46,6.82,4.77,0.58,-1.55,-0.42,637.0,587.0,585.0,612.0,549.0,1,3
29,-3.87,6.3,4.88,0.49,-2.23,-0.53,625.0,579.0,575.0,598.0,541.0,1,3
30,-2.6,6.69,5.49,0.62,-2.6,-0.89,613.0,573.0,563.0,583.0,534.0,1,3
31,-0.74,7.14,4.44,0.25,-2.44,-0.71,586.0,570.0,558.0,568.0,511.0,1,3
32,-1.46,7.04,4.62,1.16,-3.33,-1.22,587.0,568.0,560.0,563.0,493.0,1,3
33,0.38,7.75,4.82,0.39,-2.24,-0.88,580.0,571.0,563.0,559.0,488.0,1,3
34,2.94,9.07,4.8,0.33,-0.32,-0.23,585.0,585.0,573.0,562.0,489.0,1,3
35,3.37,8.43,4.35,0.74,0.66,0.01,599.0,601.0,588.0,571.0,502.0,1,3
36,0.77,8.07,3.56,0.11,2.54,0.3,616.0,622.0,611.0,584.0,530.0,1,3
37,-1.55,7.88,2.88,-0.23,2.58,0.32,604.0,634.0,624.0,591.0,542.0,1,3
38,-2.0,7.47,4.04,-0.97,3.43,0.44,600.0,635.0,623.0,592.0,551.0,1,3
39,-3.71,7.42,3.72,-1.14,2.66,0.75,615.0,621.0,612.0,602.0,555.0,1,3
40,-3.28,6.95,3.58,-1.11,2.35,0.71,627.0,604.0,602.0,615.0,555.0,1,3
41,-4.85,7.39,3.79,-1.0,2.05,0.76,632.0,604.0,602.0,618.0,557.0,1,3
42,-4.44,7.53,3.82,-0.3,0.97,0.66,634.0,607.0,605.0,624.0,555.0,1,3
43,-4.37,6.84,4.81,0.08,-0.33,0.35,635.0,605.0,601.0,624.0,547.0,1,3
44,-6.28,6.77,4.76,0.48,-0.95,-0.33,637.0,602.0,594.0,618.0,544.0,1,3
45,-4.13,7.28,3.95,0.27,-1.76,-0.3,637.0,596.0,589.0,609.0,541.0,1,3
46,-0.0,7.79,2.43,0.23,-2.65,-0.46,632.0,590.0,580.0,596.0,536.0,1,3
47,-2.65,7.58,3.67,0.61,-4.21,-1.07,594.0,580.0,565.0,575.0,527.0,1,3
48,-2.65,7.08,5.82,0.16,-2.3,-0.95,562.0,568.0,552.0,557.0,507.0,1,3
49,-0.09,8.22,4.29,0.47,-2.79,-0.97,563.0,572.0,549.0,551.0,492.0,1,3
50,1.82,8.71,3.51,1.43,-2.89,-1.13,566.0,587.0,554.0,551.0,487.0,1,3
51,2.49,8.43,4.58,0.41,-0.32,-0.23,574.0,597.0,563.0,557.0,494.0,1,3
52,2.19,8.76,3.65,0.1,1.17,0.21,592.0,618.0,592.0,568.0,509.0,1,3
53,0.46,8.27,2.82,-0.09,2.09,0.27,602.0,633.0,623.0,574.0,523.0,1,3
54,-2.98,8.44,3.95,-0.92,2.78,0.57,603.0,637.0,629.0,578.0,534.0,1,3
55,-1.91,6.42,3.94,-0.82,2.38,0.52,609.0,638.0,629.0,584.0,548.0,1,3
56,-2.76,7.49,4.77,-0.86,1.47,0.5,613.0,634.0,624.0,607.0,563.0,1,3
57,-5.29,7.36,4.96,-0.94,2.31,0.4,621.0,623.0,608.0,617.0,561.0,1,3
58,-4.31,7.41,4.03,-0.7,2.05,0.45,633.0,611.0,590.0,618.0,555.0,1,3
59,-3.57,6.56,4.02,-0.12,1.07,0.34,635.0,607.0,586.0,619.0,554.0,1,3
60,-3.08,7.13,3.8,-0.01,0.71,0.46,637.0,610.0,591.0,622.0,549.0,1,3
61,-4.82,7.35,5.11,0.3,0.46,0.32,638.0,611.0,598.0,623.0,540.0,1,3
62,-8.02,8.02,5.62,0.52,1.54,0.37,641.0,626.0,631.0,623.0,538.0,1,3
63,-2.09,6.92,2.82,-0.54,-0.76,0.24,643.0,628.0,622.0,610.0,538.0,1,3
64,-6.21,7.63,4.57,-0.07,-1.71,-0.49,636.0,617.0,604.0,598.0,537.0,1,3
65,-3.07,7.66,4.34,-0.09,-1.36,-0.43,637.0,606.0,592.0,590.0,538.0,1,3
66,-3.33,7.69,3.73,0.44,-3.0,-0.94,624.0,591.0,580.0,582.0,537.0,1,3
67,-3.23,7.37,4.04,0.63,-3.83,-1.4,595.0,580.0,570.0,571.0,532.0,1,3
68,-0.76,7.04,5.34,0.77,-3.96,-1.62,568.0,0.0,562.0,564.0,513.0,1,3
69,1.68,8.53,4.45,0.23,-2.96,-1.11,562.0,559.0,560.0,559.0,499.0,1,3
70,0.98,7.76,4.02,1.47,-2.4,-1.14,567.0,568.0,569.0,563.0,500.0,1,3
71,3.72,9.71,3.53,0.45,0.64,0.06,579.0,583.0,583.0,572.0,509.0,1,3
72,1.4,9.66,2.8,0.14,1.87,0.18,603.0,614.0,610.0,583.0,528.0,1,3
73,-1.64,8.3,3.08,-0.28,3.0,0.41,617.0,634.0,636.0,593.0,546.0,1,3
74,-0.46,8.02,2.82,-0.56,2.33,0.19,602.0,638.0,642.0,596.0,549.0,1,3
75,-3.03,7.52,4.3,-0.99,2.17,0.29,603.0,636.0,632.0,596.0,553.0,1,3
76,-3.42,7.18,4.07,-0.8,2.44,0.26,612.0,628.0,611.0,602.0,552.0,1,3
77,-1.88,8.2,3.72,-0.81,2.38,0.36,621.0,609.0,591.0,614.0,550.0,1,3
78,-2.63,7.09,3.6,-0.3,0.76,0.37,627.0,598.0,583.0,616.0,552.0,1,3
79,-5.12,7.28,4.03,-0.31,1.75,0.74,626.0,602.0,594.0,618.0,554.0,1,3
80,-3.29,7.16,2.64,-0.8,2.05,0.76,623.0,608.0,600.0,621.0,549.0,1,3
81,-4.03,7.59,3.13,0.24,0.03,0.36,630.0,609.0,597.0,616.0,539.0,1,3
82,-5.85,8.34,4.14,-0.38,0.76,0.31,638.0,619.0,608.0,604.0,534.0,1,3
83,-4.91,6.74,3.79,-0.52,-0.06,0.12,634.0,620.0,598.0,592.0,531.0,1,3
84,-5.5,7.57,3.36,0.33,-2.33,-0.8,633.0,609.0,588.0,586.0,529.0,1,3
85,-4.07,7.71,3.21,0.37,-3.17,-0.89,622.0,595.0,576.0,577.0,525.0,1,3
86,-1.57,7.98,2.64,0.85,-5.56,-1.45,569.0,582.0,565.0,565.0,504.0,1,3
87,-0.73,8.09,3.55,1.58,-5.15,-1.96,550.0,0.0,565.0,557.0,485.0,1,3
88,0.4,8.27,3.5,0.77,-3.2,-1.22,545.0,0.0,567.0,555.0,481.0,1,3
89,1.85,9.93,2.45,1.08,-2.37,-0.93,555.0,573.0,577.0,560.0,484.0,1,3
90,3.19,12.26,3.62,0.22,1.68,0.07,584.0,612.0,615.0,576.0,509.0,1,3
91,-0.29,6.91,1.8,-0.03,1.69,0.63,585.0,636.0,650.0,590.0,540.0,1,3
92,-0.1,8.41,2.85,-1.1,2.79,0.45,581.0,640.0,660.0,601.0,559.0,1,3
93,-2.38,6.78,3.68,-1.42,2.0,0.9,589.0,639.0,656.0,604.0,561.0,1,3
94,-2.7,7.08,6.1,-1.86,3.09,0.77,604.0,630.0,622.0,600.0,562.0,1,3
95,-2.91,6.82,4.82,-1.24,2.79,0.57,620.0,610.0,601.0,610.0,561.0,1,3
96,-1.97,6.82,4.41,-0.68,1.14,0.53,631.0,595.0,588.0,616.0,561.0,1,3
97,-4.96,6.45,5.26,-0.09,1.42,1.18,634.0,599.0,595.0,621.0,563.0,1,3
98,-4.81,6.51,4.93,0.34,1.51,0.61,631.0,605.0,605.0,624.0,562.0,1,3
99,-2.38,6.12,5.06,0.19,1.06,0.71,633.0,615.0,608.0,621.0,557.0,1,3
100,-5.78,7.84,5.49,-0.09,1.09,0.66,643.0,625.0,618.0,609.0,552.0,1,3
101,-3.67,7.68,3.87,-0.76,0.45,0.36,641.0,624.0,606.0,597.0,548.0,1,3
102,-4.06,6.81,3.96,0.07,-1.48,-0.52,639.0,613.0,595.0,588.0,548.0,1,3
103,-6.28,7.03,4.46,0.21,-2.8,-0.94,633.0,602.0,588.0,577.0,543.0,1,3
104,-1.59,8.54,3.15,0.91,-4.49,-1.6,591.0,589.0,579.0,566.0,534.0,1,3
105,-1.75,6.61,5.24,0.96,-5.4,-2.16,548.0,578.0,571.0,552.0,509.0,1,3
106,-0.02,7.92,3.85,0.62,-4.11,-1.63,546.0,566.0,572.0,550.0,500.0,1,3
107,0.41,7.07,3.66,1.22,-3.69,-1.62,550.0,566.0,575.0,552.0,498.0,1,3
108,4.81,10.03,3.13,0.68,-0.72,-0.5,557.0,572.0,579.0,557.0,503.0,1,3
109,4.37,9.07,1.28,-0.19,2.64,0.03,570.0,581.0,588.0,572.0,524.0,1,3
110,-0.61,8.88,4.33,-0.65,3.47,0.13,587.0,582.0,599.0,596.0,545.0,1,3
111,-3.71,7.66,3.29,-0.75,2.87,0.19,606.0,588.0,611.0,612.0,549.0,1,3
112,-4.81,7.96,4.2,-0.77,2.49,0.83,614.0,599.0,624.0,621.0,555.0,1,3
113,-3.22,7.92,4.12,-0.91,2.44,1.02,621.0,616.0,630.0,624.0,554.0,1,3
114,-2.16,6.93,4.15,-0.16,2.19,0.8,632.0,635.0,646.0,627.0,554.0,1,3
115,-3.84,7.24,3.95,-1.11,2.33,1.06,630.0,638.0,651.0,624.0,555.0,1,3
116,-6.74,7.14,3.82,-1.22,3.17,1.06,613.0,638.0,639.0,619.0,559.0,1,3
117,-4.42,8.1,4.53,-0.74,1.3,0.9,625.0,630.0,616.0,610.0,556.0,1,3
118,-4.0,7.15,3.66,-0.5,1.31,0.62,634.0,618.0,603.0,612.0,552.0,1,3
119,-3.52,7.34,3.73,-0.44,0.78,0.67,638.0,609.0,596.0,613.0,548.0,1,3
120,-4.37,7.8,2.96,0.1,-0.44,-0.05,638.0,603.0,599.0,611.0,548.0,1,3
121,-4.58,7.95,3.4,0.12,-2.31,-0.75,636.0,599.0,599.0,605.0,544.0,1,3
122,-4.0,7.17,2.78,0.18,-5.16,-1.76,619.0,590.0,588.0,590.0,535.0,1,3
123,-2.8,6.8,6.06,0.15,-4.12,-1.76,590.0,580.0,577.0,576.0,526.0,1,3
124,0.14,7.76,4.47,0.58,-3.85,-1.41,580.0,576.0,573.0,568.0,507.0,1,3
125,-0.79,7.31,5.05,1.19,-4.25,-2.1,570.0,569.0,573.0,561.0,492.0,1,3
126,0.11,8.32,4.45,0.19,-1.43,-0.69,568.0,569.0,575.0,559.0,489.0,1,3
127,3.17,8.75,3.85,0.26,-0.11,-0.15,576.0,574.0,582.0,563.0,492.0,1,3
128,2.81,7.61,4.28,-0.19,1.42,0.33,594.0,587.0,588.0,568.0,496.0,1,3
129,-1.18,8.96,4.72,0.52,1.26,0.46,612.0,606.0,597.0,574.0,505.0,1,3
130,-1.98,7.57,4.02,0.17,2.42,0.41,621.0,627.0,620.0,580.0,519.0,1,3
131,-0.16,8.62,2.92,-0.03,1.72,0.49,604.0,635.0,631.0,581.0,530.0,1,3
132,-2.97,7.67,3.77,-0.74,2.12,0.2,595.0,636.0,631.0,581.0,534.0,1,3
133,-2.23,8.32,4.74,-0.94,2.0,0.43,601.0,635.0,626.0,582.0,539.0,1,3
134,-2.04,7.08,4.34,-0.62,1.93,0.35,613.0,626.0,620.0,600.0,549.0,1,3
135,-1.31,7.48,4.55,-0.86,1.28,0.32,623.0,618.0,610.0,611.0,552.0,1,3
136,-3.38,6.95,3.86,-0.62,0.66,0.37,630.0,609.0,600.0,611.0,553.0,1,3
137,-3.29,7.37,4.59,-0.64,0.64,0.77,632.0,600.0,591.0,608.0,551.0,1,3
138,-4.22,7.02,4.95,-0.2,-0.25,0.24,635.0,587.0,581.0,601.0,548.0,1,3
139,-3.51,7.07,4.37,0.38,-1.76,-0.49,633.0,580.0,573.0,592.0,545.0,1,3
140,-2.43,6.93,4.5,0.28,-2.4,-0.63,631.0,574.0,560.0,579.0,537.0,1,3
141,-2.62,6.99,4.88,0.29,-2.85,-0.93,618.0,571.0,556.0,569.0,527.0,1,3
142,-2.85,7.36,5.28,0.37,-3.63,-1.45,607.0,566.0,551.0,559.0,509.0,1,3
143,1.93,8.64,4.13,0.22,-3.65,-1.16,598.0,564.0,551.0,555.0,500.0,1,3
144,2.14,8.0,4.17,0.92,-2.99,-1.24,595.0,564.0,554.0,556.0,498.0,1,3
145,4.23,8.88,3.86,0.17,-0.46,-0.26,595.0,571.0,562.0,559.0,500.0,1,3
146,2.72,8.92,3.82,-0.02,1.71,0.2,602.0,592.0,583.0,563.0,504.0,1,3
147,-0.97,7.53,4.98,0.52,1.71,0.24,618.0,625.0,619.0,567.0,513.0,1,3
148,-0.41,7.97,3.53,-0.36,2.42,0.35,626.0,634.0,638.0,569.0,526.0,1,3
149,-2.13,8.36,4.15,-0.83,1.79,0.17,599.0,635.0,636.0,570.0,532.0,1,3
150,-1.81,7.52,4.7,0.0,0.02,0.01,617.0,589.0,574.0,576.0,538.0,2,3
151,-1.8,7.63,4.65,0.01,0.02,0.02,618.0,588.0,574.0,576.0,538.0,2,3
152,-1.95,7.67,4.47,0.03,0.01,0.02,616.0,588.0,573.0,576.0,539.0,2,3
153,-1.89,7.84,4.56,0.0,-0.02,0.05,619.0,588.0,573.0,576.0,539.0,2,3
154,-1.32,8.52,4.42,0.18,0.54,0.1,620.0,601.0,586.0,582.0,542.0,2,3
155,-2.94,7.6,3.86,0.51,0.6,0.25,620.0,621.0,610.0,586.0,547.0,2,3
156,-1.52,8.41,3.42,0.33,0.8,0.28,619.0,628.0,624.0,591.0,551.0,2,3
157,-2.11,7.86,3.22,0.1,1.02,0.3,614.0,634.0,636.0,594.0,555.0,2,3
158,-2.17,8.16,3.28,-0.38,0.88,0.28,611.0,635.0,640.0,597.0,557.0,2,3
159,-3.18,7.95,3.94,-0.28,0.81,0.22,616.0,637.0,640.0,596.0,556.0,2,3
160,-3.07,7.44,4.15,-0.4,0.71,0.2,618.0,637.0,634.0,596.0,555.0,2,3
161,-2.35,7.64,4.07,-0.44,0.97,0.24,622.0,636.0,630.0,596.0,554.0,2,3
162,-3.08,7.46,4.09,-0.31,0.87,0.27,622.0,632.0,620.0,592.0,552.0,2,3
163,-4.36,7.38,4.01,-0.99,0.14,0.07,624.0,624.0,604.0,587.0,548.0,2,3
164,-4.43,7.52,4.42,-0.12,-1.46,-0.22,619.0,611.0,590.0,578.0,543.0,2,3
165,-2.5,7.42,4.27,-0.34,-2.52,-0.51,604.0,599.0,574.0,576.0,543.0,2,3
166,-2.9,7.13,4.83,0.75,-3.76,-1.67,593.0,591.0,565.0,576.0,545.0,2,3
167,-0.67,7.47,4.41,0.37,-2.22,-0.95,592.0,582.0,558.0,580.0,546.0,2,3
168,0.72,8.03,4.81,0.42,-2.57,-0.86,594.0,578.0,557.0,582.0,547.0,2,3
169,-0.41,8.09,4.81,0.41,-2.15,-0.64,599.0,580.0,562.0,584.0,547.0,2,3
170,-0.12,7.69,4.46,0.7,-2.36,-0.75,600.0,585.0,567.0,585.0,547.0,2,3
171,4.31,9.07,4.04,0.58,-1.01,-0.43,600.0,586.0,573.0,588.0,548.0,2,3
172,5.04,9.46,3.17,0.21,1.88,0.01,602.0,599.0,587.0,591.0,549.0,2,3
173,1.1,7.67,2.69,-0.32,3.71,0.26,607.0,625.0,624.0,595.0,551.0,2,3
174,-1.16,9.4,2.96,-0.66,3.09,1.01,621.0,634.0,639.0,600.0,554.0,2,3
175,-2.99,8.25,2.16,-1.85,6.13,1.05,607.0,635.0,632.0,601.0,555.0,2,3
176,-3.82,8.01,3.98,-1.18,3.42,1.24,611.0,627.0,614.0,600.0,555.0,2,3
177,-4.26,7.45,3.06,-0.86,2.21,0.84,623.0,612.0,589.0,602.0,551.0,2,3
178,-4.18,6.71,3.47,-0.57,1.45,0.72,634.0,599.0,576.0,604.0,550.0,2,3
179,-5.02,7.19,4.08,-0.56,1.03,0.68,638.0,596.0,576.0,606.0,549.0,2,3
180,-6.28,7.52,3.73,0.22,-1.39,-0.36,639.0,592.0,579.0,606.0,549.0,2,3
181,-5.17,8.15,4.5,0.3,-2.24,-0.77,638.0,588.0,579.0,606.0,548.0,2,3
182,-2.25,7.12,5.1,0.33,-1.72,-0.65,637.0,584.0,575.0,597.0,545.0,2,3
183,-1.03,7.35,3.57,0.44,-3.2,-0.9,626.0,580.0,566.0,587.0,541.0,2,3
184,-2.17,7.13,5.23,0.19,-2.53,-0.8,617.0,576.0,559.0,576.0,537.0,2,3
185,-0.6,7.47,5.71,0.28,-2.25,-0.74,605.0,575.0,555.0,569.0,525.0,2,3
186,2.79,8.67,3.91,0.65,-2.87,-0.67,606.0,574.0,555.0,564.0,513.0,2,3
187,0.91,7.7,4.93,0.69,-1.03,-0.63,608.0,577.0,557.0,564.0,510.0,2,3
188,2.07,8.7,4.13,-0.03,0.95,-0.01,609.0,589.0,566.0,566.0,511.0,2,3
189,1.19,8.37,3.31,0.05,2.0,0.16,609.0,603.0,586.0,571.0,518.0,2,3
190,-3.37,8.08,4.03,0.61,1.1,0.26,632.0,628.0,624.0,579.0,537.0,2,3
191,-2.19,8.22,3.04,-0.26,3.23,0.44,632.0,636.0,640.0,595.0,549.0,2,3
192,-1.96,7.83,4.2,-1.13,1.8,0.33,605.0,638.0,641.0,602.0,554.0,2,3
193,-3.64,7.08,4.61,-1.09,0.96,0.36,608.0,633.0,624.0,602.0,555.0,2,3
194,-4.04,7.22,5.65,-0.92,0.98,0.29,617.0,621.0,604.0,604.0,559.0,2,3
195,-2.99,6.93,4.78,-0.4,0.23,0.08,628.0,606.0,589.0,605.0,558.0,2,3
196,-2.45,6.99,4.22,0.1,-0.58,-0.11,633.0,595.0,579.0,604.0,559.0,2,3
197,-2.63,7.08,4.48,0.21,-0.61,-0.17,636.0,587.0,573.0,604.0,560.0,2,3
198,-3.32,7.41,4.7,0.23,-0.58,-0.12,635.0,584.0,573.0,606.0,560.0,2,3
199,-2.46,7.38,4.59,0.28,-0.69,-0.21,637.0,583.0,572.0,605.0,557.0,2,3
200,-3.01,7.27,4.41,0.67,-2.31,-0.57,636.0,583.0,560.0,593.0,546.0,2,3
201,-0.06,7.29,5.55,-0.03,-1.97,-0.53,626.0,579.0,550.0,575.0,525.0,2,3
202,0.35,7.85,4.6,-0.08,-0.87,-0.35,621.0,575.0,550.0,567.0,512.0,2,3
203,-0.26,8.46,4.42,0.54,-0.13,-0.42,618.0,585.0,556.0,568.0,509.0,2,3
204,-0.83,8.02,4.68,0.39,1.4,0.12,621.0,604.0,585.0,572.0,517.0,2,3
205,-1.29,7.38,3.44,0.36,1.43,0.29,641.0,633.0,639.0,584.0,543.0,2,3
206,-3.36,8.19,3.01,0.08,1.77,0.18,636.0,637.0,653.0,594.0,555.0,2,3
207,-0.64,6.93,3.66,-0.95,1.45,0.41,618.0,638.0,646.0,595.0,561.0,2,3
208,-3.1,7.74,5.01,-1.19,1.33,0.66,626.0,632.0,619.0,593.0,563.0,2,3
209,-3.74,7.54,4.03,-1.35,1.33,0.43,634.0,614.0,591.0,592.0,562.0,2,3
210,-4.09,6.72,4.79,-0.33,0.29,0.14,640.0,601.0,574.0,590.0,560.0,2,3
211,-3.81,6.77,4.25,0.15,-0.39,-0.12,643.0,593.0,567.0,591.0,560.0,2,3
212,-3.05,6.92,4.39,0.2,-0.51,-0.13,644.0,589.0,563.0,593.0,560.0,2,3
213,-3.2,7.36,4.01,0.39,-0.58,-0.21,645.0,586.0,564.0,597.0,561.0,2,3
214,-2.96,7.17,4.15,0.56,-1.24,-0.44,644.0,589.0,567.0,602.0,563.0,2,3
215,-2.77,7.18,4.49,0.24,-1.91,-0.42,643.0,584.0,557.0,601.0,562.0,2,3
216,-2.32,7.94,5.37,0.3,-1.53,-0.47,640.0,582.0,542.0,584.0,553.0,2,3
217,-1.12,8.06,4.45,0.23,-1.32,-0.56,633.0,581.0,536.0,572.0,542.0,2,3
218,-0.32,7.48,5.51,-0.11,-0.58,-0.33,623.0,585.0,535.0,564.0,531.0,2,3
219,-0.57,7.89,4.79,0.5,0.23,-0.37,622.0,611.0,549.0,567.0,533.0,2,3
220,-2.6,8.17,4.63,0.74,1.4,0.34,636.0,628.0,615.0,573.0,541.0,2,3
221,-1.39,7.35,2.53,-0.04,1.8,0.53,642.0,637.0,649.0,582.0,550.0,2,3
222,-3.76,8.28,3.77,-1.0,1.96,0.39,616.0,640.0,653.0,584.0,557.0,2,3
223,-3.58,7.56,3.49,-0.76,1.73,0.69,622.0,639.0,639.0,581.0,559.0,2,3
224,-3.41,7.05,4.38,-1.19,1.83,0.73,633.0,630.0,614.0,582.0,559.0,2,3
225,-3.46,6.94,3.67,-1.21,1.02,0.38,642.0,609.0,587.0,585.0,560.0,2,3
226,-4.12,7.12,4.66,-0.66,0.52,0.16,645.0,598.0,574.0,589.0,562.0,2,3
227,-3.81,7.64,3.7,-0.13,-0.28,-0.07,645.0,591.0,569.0,592.0,563.0,2,3
228,-3.58,7.29,3.89,0.26,-0.65,-0.23,646.0,588.0,567.0,595.0,563.0,2,3
229,-4.49,7.1,4.6,0.41,-0.89,-0.41,645.0,587.0,571.0,597.0,563.0,2,3
230,-3.54,6.82,4.47,0.39,-1.41,-0.51,643.0,589.0,572.0,599.0,563.0,2,3
231,-3.42,7.57,3.88,0.58,-2.73,-0.78,637.0,584.0,561.0,600.0,564.0,2,3
232,-3.26,6.91,5.12,0.63,-2.48,-1.06,629.0,571.0,540.0,593.0,566.0,2,3
233,-0.08,6.84,4.79,-0.21,-1.69,-0.68,614.0,563.0,528.0,579.0,558.0,2,3
234,-0.3,8.5,3.93,0.47,-2.21,-0.86,605.0,560.0,521.0,571.0,545.0,2,3
235,0.47,7.45,6.09,-0.21,0.09,-0.2,600.0,577.0,526.0,569.0,540.0,2,3
236,0.24,7.64,4.94,0.38,1.23,0.52,611.0,608.0,575.0,572.0,543.0,2,3
237,-0.48,8.02,3.87,1.01,0.91,0.43,633.0,631.0,634.0,577.0,553.0,2,3
238,-2.25,7.32,2.7,-0.11,2.52,0.19,624.0,637.0,650.0,582.0,561.0,2,3
239,-2.04,7.63,3.8,-1.24,1.87,0.78,620.0,639.0,646.0,581.0,563.0,2,3
240,-3.9,7.58,5.2,-1.18,0.99,0.68,628.0,634.0,616.0,579.0,563.0,2,3
241,-3.62,6.53,5.25,-0.97,1.27,0.37,637.0,617.0,587.0,581.0,562.0,2,3
242,-3.39,6.52,5.05,-0.59,0.56,0.16,643.0,600.0,569.0,585.0,561.0,2,3
243,-3.87,6.69,4.84,-0.04,-0.13,-0.04,644.0,590.0,562.0,590.0,563.0,2,3
244,-3.37,6.61,4.86,0.06,-0.04,-0.05,645.0,586.0,561.0,592.0,564.0,2,3
245,-4.19,7.06,4.33,0.32,-0.45,-0.29,644.0,586.0,568.0,596.0,564.0,2,3
246,-3.34,6.56,4.53,0.15,-1.3,-0.45,643.0,582.0,568.0,600.0,564.0,2,3
247,-2.66,6.68,4.22,0.45,-2.3,-0.82,641.0,576.0,556.0,597.0,564.0,2,3
248,-2.67,7.0,5.62,0.22,-1.77,-0.75,639.0,569.0,539.0,586.0,560.0,2,3
249,-1.87,7.12,5.8,0.53,-1.74,-1.06,634.0,560.0,528.0,574.0,545.0,2,3
250,-0.4,7.34,4.66,0.12,-1.81,-0.72,627.0,561.0,528.0,566.0,532.0,2,3
251,0.06,7.27,5.51,0.1,-0.31,-0.2,617.0,566.0,531.0,562.0,529.0,2,3
252,-0.18,7.95,6.05,0.32,1.16,0.08,613.0,578.0,554.0,566.0,531.0,2,3
253,-2.46,6.98,4.92,0.61,1.13,0.31,616.0,616.0,609.0,574.0,536.0,2,3
254,-1.47,7.61,3.85,0.79,0.44,0.82,637.0,633.0,645.0,584.0,542.0,2,3
255,-2.01,7.78,2.72,0.26,1.62,0.5,638.0,638.0,658.0,591.0,555.0,2,3
256,-2.98,7.48,3.37,-0.69,1.95,0.46,617.0,641.0,660.0,589.0,558.0,2,3
257,-2.92,7.37,4.9,-1.3,1.12,0.57,626.0,638.0,642.0,583.0,558.0,2,3
258,-2.88,7.09,4.9,-1.5,0.98,0.29,637.0,622.0,606.0,583.0,561.0,2,3
259,-3.89,6.4,4.58,-0.82,0.83,0.08,644.0,597.0,575.0,587.0,562.0,2,3
260,-3.9,6.81,4.97,-0.11,-0.04,-0.07,646.0,586.0,567.0,591.0,564.0,2,3
261,-2.81,6.78,4.99,0.15,-0.16,-0.11,647.0,583.0,568.0,593.0,565.0,2,3
262,-3.4,6.72,4.92,0.28,-0.48,-0.2,648.0,582.0,569.0,595.0,565.0,2,3
263,-3.38,6.41,4.84,-0.02,-0.87,-0.27,644.0,579.0,561.0,595.0,564.0,2,3
264,-3.73,6.65,5.38,0.35,-1.14,-0.55,643.0,575.0,552.0,593.0,563.0,2,3
265,-2.67,6.44,5.53,0.31,-1.1,-0.72,640.0,568.0,539.0,584.0,558.0,2,3
266,-2.81,6.82,4.77,0.39,-2.09,-1.01,636.0,562.0,527.0,575.0,548.0,2,3
267,-2.37,6.69,5.79,0.61,-2.14,-1.17,630.0,558.0,522.0,569.0,540.0,2,3
268,0.53,7.3,5.51,0.06,-1.11,-0.56,625.0,559.0,522.0,565.0,534.0,2,3
269,1.52,7.46,5.6,-0.1,-0.15,-0.1,623.0,570.0,527.0,565.0,534.0,2,3
270,-0.15,7.09,6.17,-0.39,1.58,0.52,622.0,591.0,553.0,569.0,538.0,2,3
271,-2.86,6.48,5.73,0.35,1.17,0.61,632.0,619.0,609.0,574.0,545.0,2,3
272,-2.49,7.08,4.68,0.41,1.91,0.75,644.0,631.0,638.0,579.0,553.0,2,3
273,-2.25,7.08,4.1,0.19,1.5,0.87,644.0,637.0,649.0,582.0,562.0,2,3
274,-3.31,7.06,4.93,-0.31,0.63,0.77,632.0,637.0,649.0,577.0,558.0,2,3
275,-3.17,7.38,4.34,-0.62,1.0,0.39,615.0,633.0,635.0,568.0,554.0,2,3
276,-3.61,7.3,5.57,-0.84,0.7,0.3,620.0,627.0,612.0,563.0,551.0,2,3
277,-3.18,6.9,5.16,-0.47,0.48,0.0,627.0,613.0,586.0,563.0,551.0,2,3
278,-3.52,6.27,4.8,-0.23,-0.1,-0.25,638.0,588.0,559.0,569.0,554.0,2,3
279,-3.5,7.12,5.63,0.06,-0.1,-0.08,640.0,574.0,549.0,572.0,556.0,2,3
280,-2.84,6.79,4.67,0.27,-0.2,-0.24,639.0,576.0,555.0,575.0,557.0,2,3
281,-2.8,6.68,5.43,0.27,-0.71,-0.39,638.0,575.0,556.0,577.0,558.0,2,3
282,-4.62,6.73,4.49,0.32,-1.64,-0.63,634.0,570.0,545.0,575.0,553.0,2,3
283,-3.63,7.0,5.2,0.53,-1.72,-0.83,632.0,562.0,529.0,572.0,547.0,2,3
284,-0.57,7.52,5.03,0.03,-1.45,-0.63,628.0,558.0,522.0,568.0,541.0,2,3
285,-0.94,6.91,5.29,0.04,-1.4,-0.51,626.0,559.0,523.0,566.0,536.0,2,3
286,0.52,7.43,5.93,-0.03,-0.06,0.01,626.0,564.0,528.0,566.0,535.0,2,3
287,0.55,7.64,5.83,-0.1,1.35,0.33,630.0,578.0,538.0,568.0,538.0,2,3
288,-2.23,6.54,5.65,0.01,1.69,0.54,637.0,602.0,563.0,569.0,540.0,2,3
289,-3.27,7.21,4.73,0.57,1.38,0.68,646.0,626.0,616.0,574.0,546.0,2,3
290,-2.45,7.15,3.57,0.73,1.45,0.56,648.0,636.0,643.0,580.0,555.0,2,3
291,-2.62,7.27,4.08,0.18,1.86,0.7,646.0,639.0,653.0,582.0,561.0,2,3
292,-3.22,7.98,4.37,-0.64,1.13,0.77,633.0,640.0,656.0,582.0,561.0,2,3
293,-3.82,7.76,3.63,-0.64,0.8,0.33,621.0,638.0,631.0,577.0,559.0,2,3
294,-3.6,7.06,4.44,-0.75,0.06,0.1,629.0,626.0,602.0,572.0,559.0,2,3
295,-3.34,7.54,4.6,-0.45,-0.24,-0.03,636.0,612.0,585.0,573.0,559.0,2,3
296,-2.38,7.3,3.78,0.0,-0.37,-0.16,639.0,598.0,576.0,576.0,560.0,2,3
297,-2.88,7.22,4.17,0.16,-0.67,-0.18,639.0,591.0,571.0,578.0,562.0,2,3
298,-3.04,7.25,4.64,0.04,-0.67,-0.16,636.0,585.0,566.0,578.0,562.0,2,3
299,-2.72,7.42,4.14,0.16,-1.01,-0.27,635.0,587.0,570.0,577.0,559.0,2,3
300,-2.52,7.51,4.43,-0.02,-0.01,0.01,633.0,600.0,581.0,583.0,557.0,3,3
301,-2.57,7.52,4.46,-0.02,0.02,0.02,633.0,600.0,582.0,583.0,557.0,3,3
302,-2.68,7.47,4.43,-0.03,-0.01,0.03,633.0,600.0,581.0,583.0,557.0,3,3
303,-2.77,7.42,4.41,-0.02,-0.07,0.02,633.0,600.0,582.0,582.0,557.0,3,3
304,-2.19,7.45,4.54,-0.02,-0.08,0.0,634.0,600.0,582.0,583.0,557.0,3,3
305,-2.08,7.76,4.34,-0.05,0.07,0.02,634.0,600.0,581.0,583.0,557.0,3,3
306,-2.42,7.69,4.24,-0.1,0.2,0.0,634.0,600.0,581.0,583.0,557.0,3,3
307,-2.01,7.61,4.18,-0.3,0.47,-0.03,633.0,602.0,581.0,584.0,556.0,3,3
308,-2.63,7.05,4.12,-0.41,0.9,0.05,634.0,602.0,581.0,586.0,555.0,3,3
309,-3.38,7.44,4.09,-0.55,1.26,0.1,635.0,603.0,582.0,595.0,555.0,3,3
310,-2.95,7.19,3.75,-0.5,1.02,0.17,635.0,599.0,583.0,603.0,556.0,3,3
311,-5.18,6.74,4.76,-0.42,0.8,0.25,635.0,596.0,584.0,607.0,557.0,3,3
312,-4.49,6.87,4.07,-0.41,0.75,0.35,636.0,596.0,584.0,609.0,556.0,3,3
313,-5.3,6.86,3.99,-0.18,-0.25,0.3,634.0,593.0,581.0,609.0,553.0,3,3
314,-5.91,6.04,4.24,0.19,-1.77,-0.25,629.0,586.0,574.0,602.0,549.0,3,3
315,-4.53,6.86,3.27,0.73,-4.01,-1.0,611.0,581.0,560.0,579.0,537.0,3,3
316,-2.82,7.83,3.18,1.07,-5.89,-2.05,567.0,576.0,554.0,565.0,518.0,3,3
317,0.83,7.21,4.81,0.38,-4.42,-1.48,550.0,570.0,555.0,559.0,502.0,3,3
318,1.87,7.98,4.42,0.53,-3.1,-1.12,550.0,570.0,559.0,557.0,499.0,3,3
319,5.78,8.87,3.92,0.71,-0.52,-0.39,558.0,583.0,572.0,564.0,503.0,3,3
320,2.92,8.78,4.49,0.15,2.28,0.33,582.0,610.0,606.0,572.0,515.0,3,3
321,-0.98,7.65,4.14,0.38,2.04,0.45,610.0,629.0,638.0,583.0,536.0,3,3
322,-0.89,8.19,3.59,-0.52,3.19,0.7,619.0,637.0,653.0,591.0,549.0,3,3
323,-2.45,7.53,3.71,-1.37,4.2,0.71,601.0,639.0,649.0,592.0,554.0,3,3
324,-4.59,6.96,5.22,-1.71,2.37,0.6,613.0,625.0,620.0,590.0,554.0,3,3
325,-3.95,7.05,4.58,-1.31,1.91,0.45,628.0,603.0,593.0,593.0,553.0,3,3
326,-3.91,6.56,4.58,-0.73,1.86,0.7,634.0,592.0,583.0,606.0,557.0,3,3
327,-4.53,6.43,4.23,-0.38,1.62,0.93,636.0,592.0,583.0,609.0,558.0,3,3
328,-3.33,7.22,4.98,-0.3,0.65,0.53,638.0,592.0,585.0,609.0,558.0,3,3
329,-7.19,6.45,4.62,0.22,-1.18,-0.25,637.0,589.0,582.0,608.0,557.0,3,3
330,-3.55,6.98,3.5,0.63,-3.32,-0.84,635.0,583.0,576.0,596.0,553.0,3,3
331,-1.24,7.41,4.24,0.73,-4.6,-1.41,625.0,579.0,573.0,587.0,547.0,3,3
332,0.2,7.15,5.22,0.33,-3.0,-1.28,597.0,574.0,571.0,579.0,538.0,3,3
333,0.07,7.2,5.25,0.28,-3.32,-1.45,563.0,568.0,567.0,566.0,516.0,3,3
334,1.48,7.55,5.38,0.15,-1.57,-0.63,559.0,568.0,568.0,561.0,508.0,3,3
335,3.18,7.95,5.12,0.36,-0.33,-0.16,567.0,574.0,575.0,561.0,506.0,3,3
336,2.26,7.91,4.96,0.62,1.61,0.29,585.0,596.0,600.0,568.0,514.0,3,3
337,-0.84,7.0,4.65,0.62,1.5,0.55,610.0,629.0,639.0,573.0,527.0,3,3
338,-0.03,7.85,3.59,0.02,1.36,0.51,624.0,637.0,652.0,580.0,541.0,3,3
339,-3.9,7.92,4.58,-1.0,2.94,0.4,606.0,637.0,648.0,580.0,546.0,3,3
340,-2.65,7.31,4.96,-1.43,2.51,0.56,615.0,629.0,623.0,578.0,551.0,3,3
341,-0.72,7.18,4.37,-1.4,1.86,0.58,627.0,608.0,597.0,584.0,555.0,3,3
342,-5.45,6.68,5.16,-0.7,1.28,0.48,635.0,599.0,584.0,600.0,559.0,3,3
343,-5.51,6.13,4.92,-0.34,1.19,0.5,639.0,592.0,579.0,605.0,559.0,3,3
344,-3.96,6.6,4.88,-0.1,0.08,0.29,639.0,587.0,578.0,607.0,559.0,3,3
345,-5.54,6.42,4.87,0.53,-1.5,-0.39,639.0,584.0,574.0,605.0,559.0,3,3
346,-3.21,5.97,5.24,0.3,-1.86,-0.47,638.0,578.0,563.0,597.0,557.0,3,3
347,-1.68,6.81,5.26,0.38,-2.12,-0.56,634.0,575.0,555.0,584.0,550.0,3,3
348,-2.69,6.96,5.53,0.7,-2.84,-1.07,625.0,571.0,552.0,576.0,545.0,3,3
349,-1.2,6.79,5.54,0.51,-2.82,-1.1,614.0,570.0,550.0,567.0,534.0,3,3
350,-0.05,7.37,5.02,0.09,-2.92,-1.03,603.0,566.0,549.0,559.0,520.0,3,3
351,3.12,7.86,5.01,0.17,-1.58,-0.44,600.0,568.0,551.0,556.0,516.0,3,3
352,3.68,7.65,5.27,0.11,0.87,0.05,602.0,575.0,556.0,558.0,517.0,3,3
353,1.6,7.38,4.56,-0.02,2.47,0.33,608.0,594.0,575.0,564.0,522.0,3,3
354,-0.99,6.85,5.83,0.39,2.06,0.37,633.0,619.0,609.0,569.0,529.0,3,3
355,-2.17,7.6,4.47,-0.08,2.05,0.25,636.0,631.0,632.0,571.0,541.0,3,3
356,-3.41,7.21,4.03,-0.64,1.76,0.27,629.0,635.0,642.0,580.0,557.0,3,3
357,-2.73,7.14,4.8,-0.59,1.25,0.14,630.0,635.0,646.0,585.0,565.0,3,3
358,-2.67,7.96,5.17,-0.91,1.76,0.66,632.0,624.0,620.0,585.0,567.0,3,3
359,-3.18,5.94,5.58,-1.31,1.09,0.48,635.0,603.0,587.0,587.0,566.0,3,3
360,-3.95,5.77,5.33,-0.63,0.9,0.27,641.0,589.0,567.0,596.0,564.0,3,3
361,-4.06,6.08,5.99,-0.33,0.61,0.33,643.0,585.0,564.0,599.0,562.0,3,3
362,-3.99,6.72,4.6,0.31,-0.24,0.02,643.0,584.0,564.0,599.0,562.0,3,3
363,-4.06,6.41,5.11,0.46,-1.27,-0.23,641.0,583.0,563.0,596.0,555.0,3,3
364,-2.01,6.42,5.0,0.12,-1.6,-0.29,621.0,580.0,557.0,589.0,546.0,3,3
365,-3.06,6.57,5.51,0.15,-1.14,-0.41,592.0,574.0,551.0,576.0,537.0,3,3
366,-2.01,6.29,7.02,-0.04,-1.34,-0.58,570.0,565.0,542.0,562.0,521.0,3,3
367,-2.01,6.11,5.75,0.56,-2.47,-0.91,568.0,561.0,540.0,553.0,508.0,3,3
368,0.03,7.18,5.97,0.42,-2.09,-0.73,567.0,560.0,538.0,552.0,501.0,3,3
369,1.12,7.05,5.69,0.73,-1.38,-0.68,571.0,560.0,539.0,551.0,500.0,3,3
370,1.7,7.59,5.35,0.18,0.61,0.12,577.0,568.0,546.0,555.0,504.0,3,3
371,-0.89,7.54,4.93,0.39,1.59,0.13,592.0,588.0,567.0,563.0,514.0,3,3
372,-1.89,8.37,5.27,0.83,1.79,0.33,623.0,624.0,621.0,576.0,535.0,3,3
373,-2.12,6.99,3.25,0.3,1.97,0.23,634.0,635.0,647.0,582.0,550.0,3,3
374,-2.57,7.64,3.53,-1.03,2.5,0.28,615.0,638.0,652.0,585.0,561.0,3,3
375,-2.98,7.15,4.49,-1.04,1.23,0.66,619.0,637.0,636.0,586.0,566.0,3,3
376,-4.87,7.26,5.56,-1.27,1.76,0.42,629.0,618.0,602.0,589.0,569.0,3,3
377,-3.22,6.18,4.65,-1.01,1.05,0.31,639.0,600.0,580.0,596.0,568.0,3,3
378,-4.42,6.81,5.08,-0.41,0.18,0.24,641.0,592.0,570.0,598.0,564.0,3,3
379,-4.43,6.85,4.35,0.27,-0.4,-0.18,643.0,588.0,567.0,598.0,563.0,3,3
380,-3.87,6.86,4.86,0.4,-1.07,-0.18,643.0,584.0,563.0,596.0,563.0,3,3
381,-2.54,6.48,4.98,0.19,-1.18,-0.18,640.0,580.0,560.0,591.0,557.0,3,3
382,-1.85,6.87,4.51,0.1,-1.29,-0.27,634.0,577.0,554.0,584.0,550.0,3,3
383,-3.74,6.49,5.82,0.22,-1.81,-0.56,615.0,568.0,541.0,573.0,543.0,3,3
384,-3.82,6.36,5.76,0.26,-2.56,-0.77,594.0,560.0,531.0,562.0,532.0,3,3
385,-0.89,7.51,4.48,0.91,-4.36,-1.48,593.0,559.0,531.0,556.0,522.0,3,3
386,2.55,7.59,5.53,0.28,-2.19,-0.79,592.0,558.0,530.0,555.0,519.0,3,3
387,3.16,7.93,5.11,0.52,-0.2,-0.34,597.0,569.0,540.0,559.0,523.0,3,3
388,1.75,8.34,5.34,-0.02,1.95,0.24,606.0,589.0,563.0,566.0,530.0,3,3
389,-3.33,7.23,5.41,0.71,1.53,0.13,626.0,620.0,612.0,573.0,541.0,3,3
390,-1.18,7.44,3.52,0.42,1.66,0.1,636.0,634.0,647.0,584.0,560.0,3,3
391,-0.42,7.69,3.38,-0.23,1.3,0.03,624.0,637.0,655.0,587.0,567.0,3,3
392,-2.86,7.83,4.4,-1.2,2.66,0.3,621.0,638.0,647.0,585.0,566.0,3,3
393,-3.63,7.01,4.96,-1.31,2.53,0.6,629.0,625.0,612.0,581.0,563.0,3,3
394,-4.39,6.92,4.78,-1.15,1.87,0.3,638.0,598.0,580.0,588.0,564.0,3,3
395,-3.66,6.44,3.77,-0.62,0.85,0.32,641.0,588.0,571.0,597.0,566.0,3,3
396,-4.66,7.06,4.46,-0.22,0.74,0.59,644.0,593.0,579.0,604.0,567.0,3,3
397,-4.16,7.38,4.3,-0.37,1.19,1.14,643.0,596.0,583.0,608.0,567.0,3,3
398,-4.93,5.7,4.37,0.18,-0.3,0.13,642.0,598.0,585.0,608.0,564.0,3,3
399,-4.07,7.03,4.05,0.09,-2.41,-0.29,640.0,593.0,573.0,596.0,552.0,3,3
400,-5.07,6.8,5.46,0.4,-2.13,-0.83,635.0,585.0,561.0,581.0,538.0,3,3
401,-0.68,6.83,4.36,-0.24,-2.83,-0.79,616.0,575.0,551.0,568.0,522.0,3,3
402,-1.49,7.42,4.15,0.77,-3.89,-1.45,608.0,571.0,549.0,560.0,511.0,3,3
403,-0.3,7.35,5.06,0.51,-3.42,-1.52,603.0,575.0,549.0,556.0,507.0,3,3
404,2.6,8.26,5.1,0.13,-0.62,-0.36,606.0,593.0,558.0,560.0,508.0,3,3
405,2.13,8.77,5.32,0.43,1.38,0.09,610.0,615.0,589.0,571.0,522.0,3,3
406,-0.65,6.84,3.98,-0.13,2.19,0.41,628.0,633.0,634.0,586.0,545.0,3,3
407,-1.87,6.63,4.41,-0.51,2.79,0.5,637.0,637.0,644.0,589.0,560.0,3,3
408,-2.54,7.53,5.2,-0.86,1.78,0.79,628.0,637.0,642.0,589.0,565.0,3,3
409,-2.58,7.0,4.73,-0.8,1.76,0.74,629.0,627.0,619.0,588.0,567.0,3,3
410,-3.47,6.49,5.0,-0.81,1.86,0.46,636.0,608.0,585.0,591.0,570.0,3,3
411,-4.6,6.69,4.51,-0.77,1.27,0.38,643.0,593.0,568.0,599.0,569.0,3,3
412,-3.62,6.98,4.58,-0.51,1.21,0.56,643.0,591.0,569.0,602.0,568.0,3,3
413,-3.46,7.11,4.85,-0.47,0.38,0.74,642.0,592.0,573.0,605.0,564.0,3,3
414,-3.86,6.39,4.51,-0.43,0.23,0.86,637.0,588.0,569.0,602.0,561.0,3,3
415,-5.93,5.82,6.02,0.31,-0.52,-0.42,628.0,582.0,560.0,589.0,550.0,3,3
416,-2.71,6.43,4.54,-0.06,-2.4,-0.81,611.0,572.0,550.0,573.0,534.0,3,3
417,-3.09,7.71,6.22,0.04,-3.35,-1.65,587.0,565.0,545.0,560.0,519.0,3,3
418,-3.35,5.37,7.13,0.34,-3.21,-1.88,582.0,559.0,542.0,552.0,510.0,3,3
419,2.34,7.15,4.81,0.7,-3.14,-1.34,579.0,561.0,546.0,549.0,504.0,3,3
420,2.34,7.45,5.71,0.77,-1.35,-0.64,583.0,569.0,555.0,552.0,508.0,3,3
421,1.83,7.96,5.7,0.15,2.14,0.5,598.0,591.0,576.0,561.0,517.0,3,3
422,-1.04,7.42,5.09,0.53,1.74,0.51,611.0,613.0,604.0,574.0,533.0,3,3
423,-2.0,7.64,4.34,0.62,1.95,0.56,633.0,628.0,633.0,581.0,546.0,3,3
424,-2.26,7.23,3.97,0.3,2.43,0.45,641.0,636.0,647.0,586.0,556.0,3,3
425,-1.25,7.18,2.91,-0.28,1.55,0.5,631.0,637.0,649.0,597.0,571.0,3,3
426,-4.03,8.26,4.4,-0.75,0.73,0.39,620.0,630.0,632.0,599.0,574.0,3,3
427,-4.47,7.15,4.45,-0.98,1.37,0.33,619.0,620.0,611.0,596.0,570.0,3,3
428,-4.06,6.85,4.75,-1.11,0.36,0.08,622.0,605.0,589.0,593.0,567.0,3,3
429,-3.47,7.04,5.02,-0.46,-0.2,-0.03,626.0,596.0,575.0,590.0,565.0,3,3
430,-3.97,6.69,4.79,0.03,-0.6,-0.26,628.0,589.0,567.0,588.0,565.0,3,3
431,-2.38,6.72,4.71,0.17,-1.06,-0.32,631.0,583.0,563.0,586.0,564.0,3,3
432,-2.86,6.51,5.13,0.06,-1.23,-0.33,628.0,579.0,561.0,584.0,561.0,3,3
433,-2.71,6.57,5.1,0.08,-1.3,-0.35,615.0,576.0,559.0,580.0,555.0,3,3
434,-3.22,6.68,5.51,0.07,-2.06,-0.7,603.0,570.0,551.0,572.0,544.0,3,3
435,-1.45,6.74,5.79,0.09,-2.81,-0.98,585.0,561.0,545.0,559.0,526.0,3,3
436,-0.05,6.79,6.3,0.23,-2.41,-0.98,576.0,556.0,546.0,552.0,517.0,3,3
437,2.08,7.16,5.74,0.76,-0.88,-0.61,585.0,565.0,557.0,554.0,519.0,3,3
438,2.38,8.04,5.11,0.43,1.74,0.13,604.0,588.0,584.0,559.0,522.0,3,3
439,-2.13,7.27,6.2,0.57,1.57,0.22,615.0,614.0,617.0,569.0,535.0,3,3
440,-0.68,7.19,4.13,0.32,1.05,0.4,638.0,633.0,645.0,581.0,550.0,3,3
441,-2.31,7.56,3.95,-0.08,2.39,0.13,640.0,637.0,654.0,586.0,561.0,3,3
442,-2.01,7.3,4.24,-1.18,1.13,0.32,634.0,637.0,648.0,588.0,562.0,3,3
443,-2.96,7.61,4.99,-1.23,1.62,0.41,637.0,625.0,619.0,588.0,565.0,3,3
444,-3.17,6.35,5.41,-0.7,1.21,0.2,640.0,610.0,596.0,591.0,570.0,3,3
445,-4.12,6.38,5.46,-0.54,0.98,0.15,643.0,598.0,583.0,600.0,570.0,3,3
446,-4.21,6.52,4.65,-0.02,0.33,0.06,644.0,592.0,577.0,607.0,571.0,3,3
447,-3.33,6.48,4.71,0.33,-0.26,-0.05,642.0,591.0,578.0,611.0,570.0,3,3
448,-3.71,6.37,4.9,0.15,-0.42,-0.0,638.0,589.0,578.0,611.0,568.0,3,3
449,-3.83,6.59,5.07,0.02,-0.27,0.03,634.0,588.0,575.0,606.0,562.0,3,3
450,-2.35,7.27,4.92,-0.01,-0.04,-0.0,609.0,570.0,561.0,573.0,535.0,4,3
451,-2.35,7.25,4.94,-0.03,-0.05,-0.0,608.0,570.0,561.0,573.0,535.0,4,3
452,-2.06,7.24,5.0,-0.03,-0.07,-0.0,608.0,570.0,561.0,573.0,534.0,4,3
453,-1.52,7.53,4.98,0.04,0.13,0.01,608.0,574.0,564.0,573.0,536.0,4,3
454,-2.47,7.51,5.32,0.47,0.5,0.02,617.0,588.0,578.0,575.0,539.0,4,3
455,-0.93,7.52,3.22,0.64,0.4,0.33,630.0,618.0,601.0,581.0,548.0,4,3
456,-1.87,8.18,3.38,-0.26,1.31,0.37,625.0,629.0,623.0,584.0,551.0,4,3
457,-2.44,8.16,3.46,-0.72,1.99,0.75,620.0,632.0,630.0,585.0,556.0,4,3
458,-3.67,7.14,4.15,-1.12,2.27,0.45,623.0,628.0,625.0,588.0,561.0,4,3
459,-4.04,6.79,4.83,-1.46,2.21,0.64,629.0,613.0,605.0,599.0,566.0,4,3
460,-5.2,5.96,3.62,-1.34,1.68,0.58,635.0,599.0,588.0,611.0,565.0,4,3
461,-4.8,7.0,4.21,-0.63,1.02,0.58,636.0,597.0,586.0,616.0,566.0,4,3
462,-5.48,6.52,4.18,-0.07,-0.32,0.17,636.0,597.0,587.0,617.0,566.0,4,3
463,-6.74,6.13,4.44,0.27,-2.11,-0.63,632.0,592.0,583.0,608.0,561.0,4,3
464,-3.4,6.21,2.75,-0.31,-4.11,-1.5,606.0,576.0,558.0,587.0,549.0,4,3
465,-1.44,7.17,5.08,0.75,-4.93,-2.29,585.0,567.0,548.0,572.0,534.0,4,3
466,1.55,6.82,5.56,0.37,-3.4,-1.63,574.0,564.0,548.0,564.0,520.0,4,3
467,2.84,6.97,6.41,0.25,-1.22,-0.66,574.0,567.0,552.0,563.0,516.0,4,3
468,1.95,6.94,6.53,0.41,0.33,-0.15,586.0,583.0,567.0,569.0,521.0,4,3
469,-2.0,7.23,7.13,0.86,1.34,0.16,604.0,615.0,609.0,579.0,538.0,4,3
470,0.7,7.46,3.93,0.61,1.11,0.45,620.0,632.0,640.0,590.0,555.0,4,3
471,-2.9,6.57,4.46,-0.56,2.4,0.52,604.0,636.0,643.0,595.0,564.0,4,3
472,-1.28,6.92,5.54,-1.17,2.42,0.71,609.0,625.0,617.0,596.0,568.0,4,3
473,-2.25,6.52,5.24,-1.21,2.64,0.75,615.0,609.0,601.0,604.0,570.0,4,3
474,-2.86,6.42,5.01,-0.76,1.6,0.8,616.0,603.0,595.0,613.0,568.0,4,3
475,-4.25,6.37,4.65,-0.18,0.53,0.47,618.0,598.0,592.0,616.0,567.0,4,3
476,-5.9,6.12,4.86,0.28,-0.88,-0.02,610.0,594.0,588.0,614.0,563.0,4,3
477,-3.65,6.22,5.63,0.27,-1.59,-0.4,595.0,586.0,581.0,607.0,558.0,4,3
478,-1.02,6.27,5.05,-0.04,-1.56,-0.37,590.0,577.0,566.0,589.0,548.0,4,3
479,-2.63,6.55,5.8,0.05,-1.56,-0.48,573.0,568.0,551.0,572.0,533.0,4,3
480,-2.44,6.11,6.65,0.37,-1.82,-0.84,565.0,561.0,548.0,562.0,513.0,4,3
481,-0.74,6.53,5.76,0.3,-1.92,-0.85,561.0,562.0,548.0,557.0,505.0,4,3
482,1.46,7.31,5.71,0.44,-0.8,-0.39,564.0,570.0,557.0,559.0,506.0,4,3
483,0.57,7.32,5.4,0.58,1.4,0.1,580.0,594.0,584.0,571.0,524.0,4,3
484,-0.29,7.28,4.93,0.68,0.95,0.32,614.0,624.0,623.0,583.0,544.0,4,3
485,-1.9,6.98,4.41,0.0,2.31,0.4,617.0,632.0,636.0,587.0,552.0,4,3
486,-2.79,7.13,3.96,-0.71,2.11,0.45,612.0,635.0,639.0,592.0,560.0,4,3
487,-5.16,7.26,5.36,-1.13,2.02,0.75,620.0,629.0,627.0,597.0,563.0,4,3
488,-4.18,6.4,4.97,-1.11,1.48,0.47,628.0,611.0,603.0,601.0,561.0,4,3
489,-4.44,6.28,4.98,-0.75,0.77,0.28,634.0,594.0,585.0,606.0,562.0,4,3
490,-5.5,6.36,4.98,0.1,0.07,-0.02,638.0,586.0,578.0,608.0,561.0,4,3
491,-4.47,6.52,4.9,0.18,-0.25,-0.09,638.0,581.0,575.0,608.0,562.0,4,3
492,-3.35,6.49,4.78,0.3,-0.84,-0.14,637.0,578.0,573.0,608.0,560.0,4,3
493,-4.26,6.34,4.75,0.23,-1.27,-0.28,630.0,576.0,571.0,607.0,559.0,4,3
494,-3.68,6.63,5.39,0.11,-1.0,-0.29,599.0,576.0,568.0,603.0,555.0,4,3
495,-1.76,6.15,5.91,-0.21,-0.49,-0.24,576.0,566.0,556.0,589.0,546.0,4,3
496,-2.78,5.68,5.81,0.36,-1.85,-0.84,566.0,559.0,549.0,571.0,533.0,4,3
497,-2.41,6.18,6.46,0.27,-0.87,-0.56,558.0,559.0,553.0,560.0,516.0,4,3
498,-0.87,7.6,5.1,0.67,-0.44,-0.4,570.0,578.0,577.0,563.0,518.0,4,3
499,-1.66,7.07,6.27,0.54,0.21,0.11,591.0,602.0,601.0,571.0,529.0,4,3
500,-1.09,7.53,3.89,0.58,0.15,0.43,623.0,629.0,638.0,587.0,549.0,4,3
501,-1.41,7.62,4.1,0.11,1.29,0.44,624.0,635.0,647.0,592.0,556.0,4,3
502,-4.27,6.92,4.36,-0.82,1.07,0.52,614.0,635.0,641.0,595.0,566.0,4,3
503,-3.03,7.05,5.53,-1.01,1.24,0.3,621.0,621.0,615.0,594.0,565.0,4,3
504,-3.06,6.56,4.9,-1.14,0.81,0.1,630.0,603.0,591.0,593.0,567.0,4,3
505,-3.65,6.39,5.5,-0.46,0.43,0.04,638.0,590.0,578.0,594.0,567.0,4,3
506,-3.9,6.59,4.66,-0.11,0.04,-0.06,642.0,582.0,573.0,599.0,567.0,4,3
507,-3.79,6.7,4.91,0.22,-0.44,-0.1,640.0,580.0,573.0,602.0,567.0,4,3
508,-3.95,6.41,5.11,0.19,-0.45,-0.08,628.0,576.0,570.0,603.0,565.0,4,3
509,-3.19,6.46,5.06,-0.04,-0.62,-0.05,611.0,573.0,566.0,601.0,559.0,4,3
510,-2.33,6.62,6.13,0.1,-0.82,-0.22,586.0,569.0,558.0,590.0,546.0,4,3
511,-3.54,5.61,5.21,0.2,-1.67,-0.64,577.0,564.0,550.0,573.0,531.0,4,3
512,-1.77,7.52,7.57,-0.12,-1.81,-0.8,561.0,556.0,544.0,550.0,491.0,4,3
513,-0.27,6.73,5.64,0.47,-0.97,-0.61,567.0,565.0,552.0,550.0,490.0,4,3
514,-1.6,7.04,6.58,0.36,0.89,0.09,582.0,575.0,563.0,557.0,499.0,4,3
515,-1.21,7.11,5.0,0.94,0.57,0.35,610.0,621.0,618.0,579.0,535.0,4,3
516,-2.35,7.45,4.49,0.58,0.8,0.5,619.0,634.0,644.0,593.0,554.0,4,3
517,-3.43,7.45,3.67,-0.5,1.39,0.35,604.0,638.0,642.0,597.0,565.0,4,3
518,-3.35,7.2,5.25,-1.07,1.07,0.32,611.0,623.0,613.0,599.0,568.0,4,3
519,-3.18,6.35,4.92,-1.11,1.3,0.16,623.0,602.0,588.0,603.0,568.0,4,3
520,-3.25,6.84,4.92,-0.5,0.82,0.22,629.0,595.0,585.0,606.0,566.0,4,3
521,-4.37,6.6,5.22,-0.24,-0.13,0.06,629.0,591.0,580.0,610.0,566.0,4,3
522,-4.66,6.17,5.43,-0.04,-0.43,-0.05,625.0,588.0,578.0,608.0,564.0,4,3
523,-3.15,6.7,5.09,0.09,-1.36,-0.26,620.0,582.0,571.0,596.0,559.0,4,3
524,-3.11,6.46,4.66,0.23,-1.77,-0.43,602.0,575.0,560.0,586.0,551.0,4,3
525,-2.46,6.33,6.39,0.12,-0.71,-0.33,592.0,571.0,555.0,578.0,542.0,4,3
526,-1.89,6.05,6.23,-0.36,-0.29,-0.28,573.0,564.0,548.0,566.0,527.0,4,3
527,-1.81,6.95,5.38,0.22,-1.38,-0.52,571.0,562.0,544.0,554.0,508.0,4,3
528,-1.56,6.29,6.61,0.0,-0.35,-0.43,576.0,566.0,540.0,548.0,497.0,4,3
529,-0.7,6.58,6.59,0.26,0.28,-0.04,588.0,592.0,547.0,550.0,499.0,4,3
530,-1.4,7.45,5.84,0.9,0.48,0.46,616.0,613.0,580.0,562.0,518.0,4,3
531,-3.26,7.32,3.62,0.91,0.9,0.4,627.0,631.0,628.0,584.0,555.0,4,3
532,-2.8,7.59,3.71,-0.15,1.53,0.25,609.0,634.0,635.0,594.0,569.0,4,3
533,-2.74,7.47,5.35,-0.86,1.28,0.33,618.0,624.0,614.0,597.0,572.0,4,3
534,-2.96,6.64,4.41,-1.04,1.78,0.27,629.0,606.0,588.0,602.0,572.0,4,3
535,-4.64,6.23,5.08,-0.62,0.71,0.17,634.0,595.0,573.0,606.0,568.0,4,3
536,-4.37,6.25,5.05,-0.15,0.21,0.11,636.0,589.0,566.0,607.0,568.0,4,3
537,-3.87,6.37,5.13,0.09,-0.26,0.04,635.0,585.0,565.0,607.0,565.0,4,3
538,-4.37,6.39,5.18,0.12,-0.82,-0.02,634.0,583.0,565.0,605.0,560.0,4,3
539,-3.26,6.79,5.08,0.25,-1.22,-0.25,635.0,579.0,561.0,598.0,553.0,4,3
540,-1.47,6.4,5.68,0.23,-0.83,-0.21,628.0,575.0,555.0,584.0,543.0,4,3
541,-2.94,6.32,5.57,-0.13,-0.85,-0.22,603.0,571.0,552.0,569.0,529.0,4,3
542,-3.09,6.54,5.68,0.29,-1.3,-0.45,582.0,567.0,550.0,558.0,510.0,4,3
543,-2.11,6.77,6.21,0.28,-1.22,-0.48,575.0,568.0,550.0,552.0,498.0,4,3
544,-0.28,6.99,5.83,0.45,-0.58,-0.42,578.0,572.0,554.0,553.0,497.0,4,3
545,0.17,7.49,5.63,0.32,0.48,0.09,592.0,587.0,565.0,560.0,507.0,4,3
546,-1.56,6.89,5.96,0.73,0.89,0.12,615.0,607.0,589.0,579.0,535.0,4,3
547,-1.76,6.99,3.79,0.44,1.7,0.3,635.0,626.0,615.0,590.0,553.0,4,3
548,-4.27,7.57,3.81,-0.67,1.5,0.12,626.0,632.0,627.0,598.0,569.0,4,3
549,-1.97,7.41,4.78,-0.82,1.43,0.41,627.0,625.0,613.0,600.0,573.0,4,3
550,-4.17,7.14,4.54,-0.95,1.56,0.3,633.0,602.0,583.0,605.0,573.0,4,3
551,-4.45,6.59,4.1,-0.49,0.44,0.17,637.0,586.0,565.0,604.0,564.0,4,3
552,-4.26,7.12,4.02,0.13,0.04,0.03,637.0,583.0,563.0,604.0,564.0,4,3
553,-3.49,6.84,4.37,0.21,-0.56,0.09,635.0,583.0,566.0,606.0,562.0,4,3
554,-4.52,7.28,4.08,0.26,-0.7,0.01,623.0,582.0,572.0,607.0,556.0,4,3
555,-3.85,7.08,4.6,0.33,-0.96,-0.17,591.0,585.0,576.0,604.0,547.0,4,3
556,-2.45,6.87,4.07,-0.2,-1.37,-0.17,563.0,585.0,568.0,592.0,533.0,4,3
557,-3.83,7.16,6.13,-0.16,-0.57,-0.25,553.0,0.0,559.0,576.0,524.0,4,3
558,-2.14,7.01,5.1,0.0,-1.17,-0.32,555.0,571.0,556.0,562.0,497.0,4,3
559,-1.64,7.1,5.04,0.3,-1.64,-0.58,554.0,568.0,558.0,554.0,483.0,4,3
560,-1.48,7.07,5.36,0.15,-0.75,-0.39,561.0,558.0,549.0,553.0,482.0,4,3
561,-0.31,7.21,5.63,-0.26,0.53,-0.12,582.0,575.0,561.0,555.0,485.0,4,3
562,-1.67,7.62,5.56,0.25,1.04,0.08,605.0,581.0,568.0,565.0,502.0,4,3
563,-2.19,7.72,5.15,0.41,1.42,0.29,626.0,610.0,599.0,583.0,534.0,4,3
564,-3.85,7.43,3.33,0.37,1.72,0.39,638.0,632.0,635.0,599.0,551.0,4,3
565,-3.48,7.64,3.46,-0.2,1.53,0.27,632.0,637.0,646.0,606.0,563.0,4,3
566,-3.2,7.23,3.68,-0.61,0.98,0.32,627.0,633.0,631.0,605.0,567.0,4,3
567,-3.93,7.09,4.71,-1.28,0.82,0.25,631.0,614.0,601.0,605.0,569.0,4,3
568,-4.19,7.22,4.32,-0.95,0.49,0.05,637.0,598.0,581.0,603.0,565.0,4,3
569,-4.39,6.43,4.16,0.11,-0.16,-0.28,642.0,584.0,563.0,599.0,562.0,4,3
570,-3.79,6.51,4.54,0.07,-0.31,-0.09,642.0,578.0,558.0,599.0,563.0,4,3
571,-3.51,6.89,4.32,0.1,-0.5,-0.12,642.0,579.0,563.0,601.0,562.0,4,3
572,-3.78,7.33,4.11,0.1,-1.52,-0.24,633.0,578.0,565.0,602.0,558.0,4,3
573,-4.48,6.68,4.82,0.2,-1.37,-0.4,614.0,577.0,566.0,601.0,553.0,4,3
574,-1.24,5.6,5.54,-0.53,-1.91,-0.37,574.0,563.0,546.0,578.0,531.0,4,3
575,-2.84,6.4,5.37,0.28,-1.93,-0.67,574.0,557.0,536.0,563.0,512.0,4,3
576,-0.98,7.15,5.67,0.49,-1.49,-0.75,571.0,554.0,535.0,556.0,497.0,4,3
577,0.75,7.18,6.1,0.25,0.2,-0.14,574.0,561.0,544.0,558.0,500.0,4,3
578,-0.99,8.14,5.58,0.65,1.17,-0.01,595.0,589.0,574.0,572.0,520.0,4,3
579,-0.81,7.27,4.02,0.5,1.16,0.42,629.0,627.0,623.0,592.0,547.0,4,3
580,-4.69,7.37,3.26,0.26,1.73,0.51,628.0,634.0,641.0,604.0,564.0,4,3
581,-2.71,6.41,3.86,-1.38,1.56,0.48,618.0,632.0,632.0,608.0,572.0,4,3
582,-3.59,7.27,5.41,-1.15,0.98,0.34,627.0,615.0,596.0,600.0,571.0,4,3
583,-4.87,6.04,4.55,-0.81,0.81,0.07,633.0,597.0,578.0,599.0,567.0,4,3
584,-4.51,6.62,5.0,-0.45,0.38,0.09,636.0,586.0,567.0,601.0,565.0,4,3
585,-3.67,6.7,4.66,0.02,-0.02,0.01,638.0,583.0,564.0,601.0,565.0,4,3
586,-3.62,6.33,4.69,0.31,-0.74,-0.1,637.0,579.0,563.0,601.0,562.0,4,3
587,-4.07,6.3,5.32,0.12,-0.65,-0.08,633.0,577.0,564.0,600.0,557.0,4,3
588,-3.88,6.31,5.34,-0.05,-0.92,-0.08,625.0,573.0,558.0,591.0,546.0,4,3
589,-4.06,6.22,5.61,0.13,-1.26,-0.4,608.0,566.0,547.0,577.0,537.0,4,3
590,-2.45,6.18,5.93,0.39,-1.77,-0.69,600.0,558.0,538.0,561.0,517.0,4,3
591,-1.61,6.5,5.16,0.37,-1.81,-0.83,589.0,554.0,536.0,552.0,501.0,4,3
592,-1.98,6.72,5.61,0.48,-1.58,-0.95,582.0,553.0,537.0,550.0,494.0,4,3
593,0.24,7.3,5.72,0.13,-0.1,-0.3,587.0,558.0,543.0,553.0,497.0,4,3
594,0.43,8.19,5.43,0.67,1.13,0.24,600.0,587.0,573.0,571.0,521.0,4,3
595,-1.63,7.32,4.51,1.24,0.74,0.51,628.0,628.0,629.0,591.0,551.0,4,3
596,-2.66,6.85,3.71,0.15,1.99,0.51,631.0,637.0,650.0,604.0,569.0,4,3
597,-3.57,7.69,3.48,-1.26,1.81,0.5,618.0,636.0,644.0,606.0,574.0,4,3
598,-2.75,7.79,4.66,-1.24,1.48,0.51,626.0,618.0,608.0,604.0,574.0,4,3
599,-3.97,6.8,4.63,-1.04,1.28,0.34,636.0,600.0,585.0,603.0,574.0,4,3
600,-2.55,6.94,5.18,-0.02,-0.05,-0.01,637.0,578.0,564.0,588.0,554.0,5,3
601,-1.63,7.08,5.26,0.08,0.11,0.04,638.0,582.0,569.0,590.0,556.0,5,3
602,-2.56,6.22,5.65,0.42,0.16,0.15,639.0,595.0,583.0,594.0,558.0,5,3
603,-1.83,7.32,4.23,0.79,0.06,0.36,641.0,617.0,614.0,602.0,563.0,5,3
604,-2.98,7.31,3.85,0.31,0.63,0.21,639.0,631.0,638.0,605.0,568.0,5,3
605,-2.51,8.26,3.45,-0.19,0.71,0.13,617.0,635.0,643.0,604.0,569.0,5,3
606,-1.89,8.49,3.34,-0.29,0.71,0.28,617.0,635.0,643.0,604.0,569.0,5,3
607,-3.06,7.81,3.74,-0.33,1.52,0.28,620.0,635.0,641.0,603.0,570.0,5,3
608,-3.32,7.07,4.02,-0.38,1.01,0.24,625.0,637.0,647.0,604.0,574.0,5,3
609,-3.24,7.15,4.66,-0.76,0.83,0.4,627.0,637.0,650.0,602.0,575.0,5,3
610,-4.25,7.54,4.14,-0.92,1.06,0.47,625.0,637.0,636.0,597.0,575.0,5,3
611,-4.55,6.67,4.8,-1.04,1.02,0.48,627.0,633.0,615.0,595.0,573.0,5,3
612,-4.8,6.47,5.37,-1.34,0.8,0.31,634.0,619.0,594.0,594.0,569.0,5,3
613,-4.35,5.77,4.73,-0.82,-0.12,-0.15,642.0,600.0,571.0,593.0,567.0,5,3
614,-4.29,6.37,4.87,0.18,-0.38,-0.29,644.0,591.0,564.0,591.0,566.0,5,3
615,-4.36,6.8,4.9,0.42,-1.19,-0.56,642.0,586.0,567.0,594.0,567.0,5,3
616,-4.14,5.89,4.48,0.18,-1.9,-0.88,636.0,578.0,558.0,591.0,563.0,5,3
617,-2.24,6.76,4.72,0.54,-3.04,-1.43,629.0,574.0,558.0,585.0,556.0,5,3
618,-2.74,6.02,6.11,0.7,-3.56,-1.66,614.0,570.0,548.0,575.0,545.0,5,3
619,-1.11,6.38,5.98,0.32,-3.26,-1.7,606.0,565.0,542.0,566.0,531.0,5,3
620,2.43,7.65,6.71,-0.03,-1.93,-0.82,599.0,562.0,541.0,560.0,521.0,5,3
621,2.26,6.7,6.44,0.3,-0.38,-0.3,603.0,572.0,547.0,563.0,524.0,5,3
622,0.87,7.18,7.8,0.87,1.94,0.27,612.0,597.0,577.0,571.0,534.0,5,3
623,0.45,7.24,4.32,0.93,1.82,0.58,639.0,631.0,634.0,584.0,554.0,5,3
624,-3.1,6.52,3.9,0.41,3.2,0.73,637.0,638.0,652.0,594.0,568.0,5,3
625,-2.82,7.15,5.02,-1.2,2.31,0.86,616.0,638.0,649.0,599.0,571.0,5,3
626,-3.66,7.67,5.33,-1.24,1.89,0.91,622.0,624.0,611.0,597.0,571.0,5,3
627,-4.85,6.57,5.38,-1.35,1.46,0.55,635.0,606.0,588.0,595.0,570.0,5,3
628,-4.29,6.83,4.83,-0.44,0.32,0.3,640.0,594.0,576.0,594.0,568.0,5,3
629,-3.68,6.38,4.04,0.35,-1.29,-0.46,642.0,582.0,564.0,593.0,568.0,5,3
630,-3.83,6.47,5.55,0.14,-2.04,-0.23,639.0,577.0,561.0,586.0,562.0,5,3
631,-1.41,5.7,6.34,0.06,-1.35,-0.49,617.0,572.0,555.0,581.0,556.0,5,3
632,-1.89,6.41,5.08,0.31,-1.76,-0.79,602.0,566.0,544.0,576.0,547.0,5,3
633,-2.61,6.63,6.29,0.44,-2.59,-1.37,590.0,560.0,537.0,566.0,534.0,5,3
634,0.14,7.6,4.9,0.53,-2.95,-1.19,588.0,555.0,535.0,563.0,526.0,5,3
635,0.84,6.93,6.61,0.16,-1.35,-0.65,584.0,559.0,536.0,561.0,525.0,5,3
636,3.37,7.95,4.93,0.2,0.07,-0.23,594.0,567.0,544.0,566.0,529.0,5,3
637,-0.06,6.51,7.16,0.15,1.95,0.49,607.0,594.0,572.0,574.0,541.0,5,3
638,-0.52,6.99,4.47,0.38,2.72,0.7,632.0,630.0,629.0,584.0,558.0,5,3
639,-4.3,6.71,3.99,-0.09,2.48,0.51,626.0,638.0,650.0,591.0,570.0,5,3
640,-1.97,7.09,4.98,-1.0,1.63,0.8,622.0,632.0,630.0,597.0,573.0,5,3
641,-3.25,6.89,5.7,-1.39,1.34,0.52,631.0,611.0,598.0,600.0,574.0,5,3
642,-3.91,6.37,4.87,-0.79,1.05,0.49,639.0,595.0,580.0,600.0,571.0,5,3
643,-5.37,6.62,5.32,-0.01,0.25,0.17,641.0,585.0,569.0,600.0,571.0,5,3
644,-3.13,6.13,4.65,0.35,-0.57,0.01,641.0,578.0,563.0,599.0,569.0,5,3
645,-4.25,6.49,5.27,0.34,-1.48,-0.33,638.0,577.0,563.0,597.0,568.0,5,3
646,-4.21,6.78,5.41,0.46,-1.25,-0.48,630.0,577.0,559.0,591.0,563.0,5,3
647,-2.66,6.96,4.09,0.49,-2.62,-1.12,609.0,569.0,542.0,577.0,548.0,5,3
648,-1.25,7.02,5.3,0.3,-2.55,-1.08,606.0,563.0,536.0,569.0,536.0,5,3
649,1.72,7.42,5.78,0.25,-2.31,-0.76,598.0,565.0,534.0,564.0,527.0,5,3
650,2.55,7.66,5.74,0.24,-0.35,-0.26,600.0,576.0,542.0,567.0,530.0,5,3
651,1.32,7.31,5.82,0.18,1.63,0.47,612.0,609.0,579.0,574.0,540.0,5,3
652,-1.63,7.98,4.98,0.5,1.55,0.75,636.0,631.0,633.0,582.0,554.0,5,3
653,-2.56,7.29,3.67,-0.2,2.27,0.3,622.0,637.0,644.0,584.0,561.0,5,3
654,-2.15,7.27,4.42,-1.18,2.1,0.48,621.0,634.0,630.0,585.0,565.0,5,3
655,-2.79,7.27,5.16,-1.36,1.57,0.54,630.0,617.0,601.0,587.0,566.0,5,3
656,-4.17,6.26,5.12,-1.02,1.24,0.39,638.0,595.0,579.0,594.0,566.0,5,3
657,-4.0,6.25,5.37,-0.31,0.66,0.32,640.0,586.0,573.0,600.0,566.0,5,3
658,-3.79,6.6,4.83,0.14,-0.58,0.06,640.0,583.0,572.0,603.0,565.0,5,3
659,-4.26,6.46,5.36,0.33,-0.66,-0.12,637.0,583.0,575.0,604.0,566.0,5,3
660,-1.69,6.57,5.07,0.28,-1.16,-0.18,618.0,581.0,573.0,601.0,561.0,5,3
661,-3.15,6.6,4.65,0.2,-1.85,-0.43,600.0,575.0,562.0,586.0,552.0,5,3
662,-2.8,7.13,6.01,0.36,-1.48,-0.63,597.0,569.0,550.0,571.0,538.0,5,3
663,-1.92,6.18,5.69,0.51,-2.42,-0.94,587.0,559.0,544.0,559.0,521.0,5,3
664,-0.77,6.62,6.17,0.2,-1.91,-0.79,581.0,556.0,542.0,553.0,512.0,5,3
665,2.1,7.95,5.31,0.33,-0.68,-0.33,584.0,565.0,547.0,555.0,514.0,5,3
666,0.67,7.74,6.27,0.54,1.82,0.14,598.0,584.0,565.0,566.0,525.0,5,3
667,-0.63,7.64,4.0,0.79,1.85,0.38,628.0,625.0,622.0,578.0,546.0,5,3
668,-2.89,7.15,2.92,0.11,2.61,0.66,632.0,636.0,644.0,586.0,559.0,5,3
669,-2.65,7.02,4.27,-0.59,2.18,0.61,612.0,637.0,650.0,593.0,570.0,5,3
670,-3.95,7.63,4.32,-0.82,1.34,0.61,614.0,632.0,632.0,593.0,571.0,5,3
671,-4.0,7.37,4.37,-1.09,1.5,0.42,626.0,620.0,602.0,595.0,574.0,5,3
672,-3.23,6.14,5.29,-1.02,0.5,0.26,636.0,605.0,581.0,596.0,574.0,5,3
673,-3.95,7.31,3.83,-0.29,0.13,0.02,640.0,593.0,569.0,597.0,573.0,5,3
674,-3.64,7.28,4.51,0.41,-0.71,-0.24,640.0,588.0,566.0,596.0,573.0,5,3
675,-3.6,7.15,4.78,0.54,-0.89,-0.22,639.0,585.0,565.0,597.0,572.0,5,3
676,-3.57,6.84,4.3,0.22,-1.7,-0.3,634.0,581.0,563.0,592.0,566.0,5,3
677,-3.38,6.9,5.41,0.43,-1.44,-0.57,632.0,577.0,557.0,584.0,559.0,5,3
678,-2.77,7.29,4.13,0.31,-2.61,-0.81,622.0,571.0,545.0,575.0,549.0,5,3
679,-1.92,7.75,4.78,0.66,-3.06,-1.04,610.0,553.0,537.0,565.0,533.0,5,3
680,0.13,7.59,5.47,0.32,-2.12,-0.76,607.0,562.0,537.0,561.0,526.0,5,3
681,2.92,8.29,5.02,0.15,-0.03,-0.2,607.0,563.0,542.0,563.0,529.0,5,3
682,1.93,9.07,4.84,0.11,2.01,-0.08,617.0,594.0,560.0,568.0,536.0,5,3
683,-1.92,7.42,3.79,-0.03,3.09,0.51,639.0,627.0,625.0,573.0,545.0,5,3
684,-1.51,8.52,3.68,-0.41,2.48,0.98,643.0,637.0,645.0,579.0,556.0,5,3
685,-3.71,7.81,3.59,-0.58,2.73,0.92,635.0,639.0,652.0,584.0,565.0,5,3
686,-4.95,8.14,4.29,-1.04,2.16,1.12,631.0,637.0,636.0,586.0,567.0,5,3
687,-4.67,7.41,4.09,-0.89,1.84,0.58,638.0,619.0,597.0,588.0,568.0,5,3
688,-3.45,6.95,3.8,-0.59,0.29,0.31,643.0,598.0,576.0,589.0,568.0,5,3
689,-3.53,7.17,3.38,0.4,-0.23,-0.15,645.0,586.0,566.0,593.0,570.0,5,3
690,-3.51,7.53,4.0,0.56,-0.71,-0.09,645.0,585.0,570.0,596.0,571.0,5,3
691,-2.46,7.93,2.84,0.38,-1.33,-0.13,641.0,589.0,577.0,599.0,569.0,5,3
692,-2.93,8.43,3.47,0.01,-2.52,-0.36,640.0,589.0,571.0,592.0,558.0,5,3
693,-4.21,6.96,4.79,0.42,-2.56,-0.95,636.0,507.0,549.0,572.0,538.0,5,3
694,-0.42,7.91,4.67,-0.17,-1.39,-0.63,631.0,545.0,540.0,562.0,523.0,5,3
695,1.24,8.07,4.56,-0.33,-0.45,-0.2,629.0,568.0,540.0,560.0,521.0,5,3
696,0.16,7.95,5.52,0.08,0.38,-0.1,630.0,579.0,548.0,567.0,528.0,5,3
697,-2.74,7.14,4.56,0.73,0.67,-0.16,639.0,616.0,598.0,575.0,540.0,5,3
698,-2.39,7.31,3.79,0.68,1.44,0.38,647.0,635.0,641.0,583.0,552.0,5,3
699,-1.75,8.14,3.23,-0.11,1.36,0.57,647.0,639.0,655.0,591.0,563.0,5,3
700,-2.3,7.59,4.15,-0.38,0.97,0.36,633.0,640.0,657.0,594.0,568.0,5,3
701,-2.32,8.2,3.82,-1.12,0.97,0.43,622.0,637.0,635.0,591.0,572.0,5,3
702,-3.52,7.64,3.98,-0.62,0.23,0.17,627.0,624.0,602.0,592.0,572.0,5,3
703,-3.98,7.48,4.77,-0.15,-0.12,-0.14,635.0,607.0,583.0,594.0,572.0,5,3
704,-2.96,7.44,3.92,-0.04,-0.06,-0.15,640.0,592.0,567.0,591.0,573.0,5,3
705,-2.42,7.58,3.97,0.06,-0.15,-0.02,641.0,582.0,559.0,590.0,572.0,5,3
706,-3.03,7.58,3.76,0.29,-0.48,-0.09,639.0,583.0,565.0,592.0,572.0,5,3
707,-3.55,7.37,4.11,0.08,-0.63,-0.1,635.0,585.0,572.0,592.0,566.0,5,3
708,-2.62,7.03,4.58,-0.22,-0.86,-0.17,632.0,578.0,562.0,582.0,551.0,5,3
709,-2.44,7.67,4.09,0.3,-2.29,-0.43,625.0,568.0,546.0,566.0,532.0,5,3
710,-0.75,8.16,4.39,-0.13,-1.65,-0.5,617.0,557.0,539.0,556.0,520.0,5,3
711,-0.41,7.85,5.37,0.0,-0.7,-0.31,616.0,561.0,539.0,555.0,518.0,5,3
712,0.91,7.98,4.75,-0.19,0.81,0.08,621.0,569.0,546.0,560.0,523.0,5,3
713,-1.38,7.55,4.74,0.15,0.95,0.11,627.0,577.0,556.0,568.0,533.0,5,3
714,-0.63,7.39,5.21,0.22,0.33,-0.06,631.0,609.0,595.0,579.0,545.0,5,3
715,-3.56,6.96,3.44,0.57,1.07,0.15,644.0,633.0,637.0,585.0,553.0,5,3
716,-2.45,7.66,3.99,0.33,1.17,0.35,647.0,637.0,652.0,590.0,560.0,5,3
717,-1.78,7.54,3.78,-0.28,0.69,0.26,643.0,639.0,657.0,593.0,563.0,5,3
718,-2.87,8.18,3.96,-0.54,0.59,0.33,635.0,640.0,653.0,590.0,567.0,5,3
719,-4.52,8.16,5.04,-0.67,0.57,0.26,633.0,635.0,625.0,587.0,568.0,5,3
720,-2.79,6.99,3.96,-0.34,0.2,-0.09,637.0,626.0,597.0,589.0,570.0,5,3
721,-3.52,7.63,4.58,-0.28,-0.06,-0.18,640.0,613.0,583.0,591.0,572.0,5,3
722,-3.39,7.37,3.35,0.18,0.05,-0.16,642.0,598.0,573.0,591.0,572.0,5,3
723,-3.28,7.59,3.57,0.18,-0.28,-0.1,641.0,588.0,567.0,592.0,573.0,5,3
724,-2.68,7.47,4.04,0.15,-0.49,-0.07,638.0,587.0,571.0,592.0,573.0,5,3
725,-3.0,7.9,3.31,-0.0,-1.22,-0.19,636.0,586.0,571.0,591.0,568.0,5,3
726,-3.06,7.47,4.75,-0.01,-1.3,-0.28,633.0,578.0,557.0,582.0,557.0,5,3
727,-2.01,7.49,4.94,-0.26,-1.63,-0.47,625.0,480.0,534.0,566.0,537.0,5,3
728,-0.93,7.66,5.39,-0.1,-1.27,-0.49,620.0,560.0,530.0,559.0,527.0,5,3
729,0.62,7.65,5.32,0.06,-0.31,-0.32,617.0,560.0,536.0,560.0,529.0,5,3
730,-0.61,7.45,5.8,0.38,0.7,-0.24,620.0,600.0,554.0,569.0,539.0,5,3
731,-3.22,7.26,4.43,0.69,0.9,0.28,638.0,628.0,618.0,583.0,551.0,5,3
732,-3.71,7.04,3.71,0.54,1.77,0.43,644.0,638.0,654.0,595.0,563.0,5,3
733,-1.78,7.69,3.36,0.03,1.16,0.43,641.0,640.0,657.0,596.0,568.0,5,3
734,-2.85,7.42,4.16,-0.66,1.06,0.38,633.0,635.0,631.0,594.0,568.0,5,3
735,-3.36,7.86,4.29,-1.29,1.02,0.21,639.0,617.0,599.0,593.0,569.0,5,3
736,-2.29,6.78,3.85,-0.34,0.62,0.34,644.0,597.0,579.0,593.0,569.0,5,3
737,-4.1,7.36,4.01,0.02,0.23,0.1,644.0,586.0,571.0,597.0,571.0,5,3
738,-3.28,7.55,3.56,0.23,0.09,0.05,643.0,583.0,568.0,600.0,571.0,5,3
739,-2.97,7.77,3.63,0.25,-0.32,0.04,641.0,583.0,572.0,604.0,572.0,5,3
740,-2.93,7.48,4.38,0.11,-0.86,-0.12,635.0,585.0,574.0,604.0,571.0,5,3
741,-3.01,7.32,4.31,-0.2,-0.59,-0.2,634.0,584.0,568.0,598.0,564.0,5,3
742,-3.0,7.19,4.29,0.2,-1.54,-0.45,630.0,576.0,549.0,583.0,552.0,5,3
743,-1.62,7.83,4.58,-0.02,-1.24,-0.37,620.0,575.0,533.0,570.0,538.0,5,3
744,-1.32,7.41,4.99,-0.13,-0.52,-0.3,612.0,580.0,531.0,567.0,532.0,5,3
745,-0.73,8.06,4.92,0.14,-0.36,-0.29,612.0,580.0,534.0,567.0,533.0,5,3
746,-0.71,7.98,4.0,0.17,0.11,-0.13,614.0,593.0,553.0,574.0,541.0,5,3
747,-3.06,7.34,4.36,0.78,0.6,0.12,633.0,626.0,621.0,589.0,558.0,5,3
748,-1.16,7.57,3.39,0.06,1.11,0.61,638.0,638.0,649.0,594.0,566.0,5,3
749,-3.62,7.78,4.13,-0.86,0.97,0.47,625.0,638.0,650.0,597.0,571.0,5,3
750,-2.67,7.25,4.77,-0.08,-0.01,0.04,627.0,575.0,557.0,582.0,553.0,6,3
751,-2.03,7.58,5.05,0.06,0.27,0.15,631.0,583.0,568.0,583.0,554.0,6,3
752,-2.62,7.5,4.92,1.13,-0.22,0.43,643.0,617.0,609.0,590.0,558.0,6,3
753,-2.09,7.19,3.74,0.73,0.59,0.72,645.0,633.0,637.0,600.0,564.0,6,3
754,-2.75,8.59,2.57,0.46,0.68,0.57,643.0,638.0,653.0,601.0,569.0,6,3
755,-3.06,8.42,2.75,-0.03,0.77,0.33,634.0,640.0,658.0,602.0,570.0,6,3
756,-3.15,8.36,2.63,-0.58,0.56,0.26,618.0,641.0,657.0,600.0,571.0,6,3
757,-3.32,7.67,3.53,-0.82,0.58,0.03,616.0,639.0,648.0,596.0,571.0,6,3
758,-2.64,7.35,4.64,-1.01,0.28,0.2,618.0,636.0,635.0,593.0,570.0,6,3
759,-2.96,7.09,5.45,-0.9,0.41,0.21,622.0,630.0,622.0,590.0,569.0,6,3
760,-1.3,6.86,5.49,-0.97,0.58,0.24,624.0,620.0,609.0,589.0,569.0,6,3
761,-2.55,6.82,5.42,-0.73,0.73,0.49,626.0,612.0,602.0,589.0,569.0,6,3
762,-4.05,6.2,5.37,-0.62,0.2,0.29,631.0,599.0,587.0,587.0,568.0,6,3
763,-4.21,6.48,4.49,-0.21,-0.32,-0.12,639.0,571.0,562.0,587.0,568.0,6,3
764,-2.88,7.46,5.37,0.33,-1.43,-0.16,640.0,562.0,550.0,587.0,567.0,6,3
765,-1.58,6.9,4.5,0.87,-2.35,-0.47,637.0,564.0,548.0,582.0,565.0,6,3
766,-2.68,7.02,5.3,0.72,-2.66,-0.63,630.0,566.0,543.0,579.0,559.0,6,3
767,-0.71,7.4,4.63,0.42,-2.98,-0.93,620.0,564.0,538.0,575.0,549.0,6,3
768,-1.58,7.41,3.91,1.02,-3.87,-1.77,613.0,561.0,536.0,570.0,541.0,6,3
769,3.42,8.06,4.58,-0.03,-1.76,-0.72,593.0,564.0,535.0,566.0,534.0,6,3
770,5.45,8.12,4.65,0.47,1.19,-0.34,594.0,583.0,547.0,569.0,539.0,6,3
771,-1.62,7.9,5.58,-0.07,2.94,0.09,620.0,618.0,616.0,578.0,548.0,6,3
772,-0.65,8.03,3.34,-0.69,2.41,0.74,634.0,634.0,645.0,584.0,558.0,6,3
773,-3.67,6.45,3.97,-1.47,3.32,0.7,621.0,636.0,642.0,584.0,565.0,6,3
774,-3.64,7.58,5.43,-1.52,2.42,0.95,627.0,625.0,616.0,587.0,567.0,6,3
775,-4.69,6.79,4.83,-1.01,1.53,0.67,635.0,611.0,598.0,599.0,570.0,6,3
776,-3.77,6.73,5.87,-0.52,1.06,0.59,639.0,603.0,590.0,605.0,569.0,6,3
777,-3.68,7.15,4.66,-0.03,-0.09,0.02,641.0,596.0,585.0,607.0,569.0,6,3
778,-3.99,6.5,4.3,0.52,-0.27,-0.25,643.0,585.0,581.0,606.0,569.0,6,3
779,-3.92,6.36,5.28,0.26,-1.52,-0.4,642.0,579.0,579.0,605.0,568.0,6,3
780,-3.9,6.61,3.68,0.4,-2.14,-0.72,640.0,575.0,576.0,599.0,565.0,6,3
781,-3.74,6.64,5.8,1.01,-2.91,-1.4,630.0,567.0,561.0,579.0,554.0,6,3
782,-1.05,7.35,4.76,0.69,-3.39,-1.58,619.0,559.0,545.0,566.0,536.0,6,3
783,0.28,7.79,4.64,0.96,-3.1,-1.2,618.0,561.0,548.0,563.0,531.0,6,3
784,1.94,8.25,4.93,0.06,-0.94,-0.54,615.0,565.0,554.0,566.0,532.0,6,3
785,2.42,8.56,5.17,0.21,0.9,0.13,618.0,578.0,573.0,571.0,539.0,6,3
786,-2.03,7.58,4.62,0.47,3.14,0.54,634.0,615.0,613.0,583.0,550.0,6,3
787,-0.7,7.85,3.39,0.61,1.72,1.1,645.0,634.0,649.0,596.0,561.0,6,3
788,-1.7,6.95,2.55,-0.12,3.21,0.77,641.0,638.0,659.0,604.0,571.0,6,3
789,-4.37,7.64,3.81,-0.99,2.95,0.81,616.0,639.0,655.0,604.0,574.0,6,3
790,-3.06,7.54,4.67,-1.63,1.56,0.57,622.0,629.0,621.0,602.0,574.0,6,3
791,-2.51,6.96,4.34,-1.3,0.45,0.16,636.0,610.0,598.0,598.0,573.0,6,3
792,-4.08,6.74,5.24,-0.5,0.68,0.23,640.0,603.0,590.0,598.0,571.0,6,3
793,-3.21,6.73,4.32,0.04,-0.1,-0.1,642.0,594.0,583.0,601.0,572.0,6,3
794,-3.84,6.96,4.57,0.25,-1.3,-0.33,643.0,586.0,578.0,600.0,572.0,6,3
795,-3.7,7.03,4.73,0.32,-1.47,-0.46,643.0,581.0,571.0,597.0,568.0,6,3
796,-1.56,7.0,5.06,0.24,-1.24,-0.41,642.0,579.0,566.0,591.0,564.0,6,3
797,-2.73,6.88,4.41,0.67,-2.0,-0.72,637.0,577.0,559.0,582.0,557.0,6,3
798,-1.38,6.66,5.36,0.31,-1.86,-0.58,627.0,572.0,549.0,574.0,547.0,6,3
799,0.32,7.7,5.24,0.15,-1.58,-0.55,622.0,567.0,544.0,569.0,538.0,6,3
800,0.52,7.77,5.35,0.62,-1.1,-0.55,612.0,569.0,543.0,569.0,536.0,6,3
801,1.52,8.49,4.93,-0.06,0.93,0.03,612.0,581.0,546.0,574.0,541.0,6,3
802,-0.17,7.9,4.34,0.17,1.85,0.18,623.0,614.0,584.0,582.0,548.0,6,3
803,-1.67,7.42,5.01,0.49,1.53,0.64,642.0,633.0,634.0,584.0,553.0,6,3
804,-1.86,8.05,3.75,-0.53,1.62,0.69,635.0,636.0,643.0,585.0,558.0,6,3
805,-2.44,7.19,4.33,-0.89,1.23,0.59,624.0,637.0,631.0,584.0,561.0,6,3
806,-3.53,7.35,5.67,-1.26,0.95,0.32,628.0,627.0,602.0,582.0,561.0,6,3
807,-2.77,7.01,4.59,-0.21,0.69,0.03,636.0,613.0,586.0,587.0,563.0,6,3
808,-3.04,7.51,4.36,0.13,-0.07,-0.08,638.0,606.0,580.0,599.0,567.0,6,3
809,-2.69,7.43,3.91,0.26,-0.37,-0.14,638.0,596.0,573.0,605.0,568.0,6,3
810,-2.7,7.18,4.0,0.14,-0.69,-0.16,638.0,589.0,568.0,607.0,568.0,6,3
811,-3.43,7.52,5.38,0.12,-0.73,-0.24,639.0,581.0,557.0,604.0,563.0,6,3
812,-2.82,7.62,4.14,0.52,-2.47,-0.69,637.0,575.0,543.0,587.0,552.0,6,3
813,-1.18,8.18,4.71,0.42,-2.13,-0.81,631.0,570.0,533.0,572.0,540.0,6,3
814,-0.5,7.64,5.27,-0.21,-0.7,-0.49,622.0,571.0,532.0,568.0,530.0,6,3
815,1.4,8.01,5.12,0.73,-0.1,-0.47,620.0,586.0,555.0,571.0,534.0,6,3
816,-0.06,8.51,5.64,0.14,1.56,0.2,641.0,625.0,622.0,578.0,544.0,6,3
817,-2.73,7.37,3.16,0.01,2.03,0.61,646.0,636.0,651.0,590.0,556.0,6,3
818,-3.55,7.81,3.06,-0.56,2.58,0.67,641.0,639.0,657.0,598.0,565.0,6,3
819,-3.21,7.4,4.14,-0.98,1.95,0.82,628.0,637.0,636.0,595.0,568.0,6,3
820,-3.56,7.52,4.87,-1.64,2.08,0.88,634.0,616.0,600.0,597.0,570.0,6,3
821,-3.7,6.85,4.01,-1.16,0.88,0.41,641.0,592.0,579.0,602.0,570.0,6,3
822,-4.33,7.15,3.83,0.1,0.36,0.2,643.0,579.0,569.0,602.0,568.0,6,3
823,-3.55,7.22,3.87,0.3,-0.61,-0.07,644.0,579.0,570.0,603.0,566.0,6,3
824,-4.19,7.75,4.31,0.37,-1.25,-0.16,640.0,580.0,571.0,601.0,559.0,6,3
825,-2.61,7.72,4.55,0.22,-1.43,-0.33,636.0,580.0,568.0,593.0,549.0,6,3
826,-0.1,6.89,4.47,0.12,-1.58,-0.53,628.0,578.0,560.0,580.0,535.0,6,3
827,-2.79,6.59,4.99,0.1,-2.47,-0.67,618.0,570.0,549.0,563.0,514.0,6,3
828,-1.65,7.41,5.45,-0.26,-0.64,-0.36,614.0,567.0,546.0,560.0,506.0,6,3
829,-0.28,7.23,5.3,0.39,-0.21,-0.44,612.0,573.0,546.0,562.0,510.0,6,3
830,-0.71,7.63,5.51,0.6,0.64,-0.06,615.0,607.0,562.0,571.0,523.0,6,3
831,-0.37,7.95,3.56,0.81,0.81,0.39,642.0,633.0,622.0,588.0,549.0,6,3
832,-2.96,7.18,3.84,0.44,2.18,0.63,643.0,639.0,654.0,607.0,569.0,6,3
833,-0.6,7.46,3.25,-0.75,2.12,0.64,623.0,641.0,658.0,618.0,578.0,6,3
834,-4.03,8.49,4.17,-0.53,1.12,0.53,622.0,639.0,651.0,624.0,583.0,6,3
835,-3.66,7.95,3.94,-0.84,0.53,0.33,629.0,634.0,631.0,626.0,584.0,6,3
836,-3.65,7.64,3.55,-0.47,0.03,0.02,637.0,618.0,605.0,625.0,584.0,6,3
837,-3.58,7.98,3.98,-0.17,-0.04,-0.14,641.0,605.0,588.0,613.0,583.0,6,3
838,-2.07,7.48,3.04,0.12,-0.29,-0.17,643.0,594.0,577.0,606.0,581.0,6,3
839,-2.77,7.42,4.02,0.29,-0.78,-0.23,643.0,589.0,574.0,603.0,579.0,6,3
840,-3.14,7.79,3.81,0.29,-0.73,-0.24,640.0,588.0,571.0,600.0,575.0,6,3
841,-2.85,7.86,4.13,-0.01,-0.9,-0.29,639.0,584.0,566.0,591.0,561.0,6,3
842,-3.85,7.53,5.19,0.21,-1.74,-0.76,635.0,574.0,551.0,577.0,542.0,6,3
843,-2.81,7.64,4.92,0.17,-2.77,-0.89,623.0,564.0,539.0,563.0,523.0,6,3
844,-1.59,7.57,4.58,1.0,-2.56,-1.33,617.0,570.0,542.0,560.0,518.0,6,3
845,1.21,9.79,4.4,-0.16,0.29,-0.21,619.0,587.0,551.0,568.0,525.0,6,3
846,0.27,8.34,4.01,0.89,1.22,0.18,628.0,619.0,597.0,585.0,548.0,6,3
847,-2.64,8.27,2.85,0.89,1.21,0.55,644.0,636.0,653.0,596.0,562.0,6,3
848,-3.22,8.3,2.55,-0.89,2.19,0.15,638.0,639.0,661.0,605.0,574.0,6,3
849,-0.02,8.04,4.05,-1.55,1.3,0.58,632.0,633.0,626.0,600.0,574.0,6,3
850,-3.5,7.18,3.45,-1.3,1.35,0.36,640.0,607.0,591.0,600.0,575.0,6,3
851,-4.05,7.27,4.83,-0.32,0.88,0.15,643.0,598.0,581.0,605.0,576.0,6,3
852,-3.46,7.31,3.77,0.17,0.34,0.13,644.0,594.0,576.0,609.0,577.0,6,3
853,-4.55,7.61,3.73,0.51,-0.26,-0.03,644.0,593.0,575.0,610.0,577.0,6,3
854,-3.79,7.34,3.89,0.44,-0.56,-0.18,642.0,594.0,576.0,611.0,576.0,6,3
855,-2.08,7.92,2.71,0.22,-1.17,-0.21,643.0,595.0,572.0,605.0,573.0,6,3
856,-4.91,7.66,4.72,0.12,-1.49,-0.36,644.0,595.0,563.0,593.0,564.0,6,3
857,-3.16,7.3,4.41,0.03,-0.94,-0.65,641.0,589.0,545.0,581.0,552.0,6,3
858,0.35,7.78,3.07,0.26,-2.29,-0.7,633.0,589.0,532.0,571.0,538.0,6,3
859,-1.71,8.09,5.05,0.16,-1.13,-0.49,625.0,589.0,526.0,566.0,533.0,6,3
860,0.5,8.02,3.45,0.15,0.53,0.04,628.0,596.0,538.0,569.0,536.0,6,3
861,-1.27,9.59,4.07,1.3,0.87,0.43,646.0,621.0,601.0,576.0,546.0,6,3
862,-3.17,7.44,2.15,-0.0,1.51,0.39,646.0,637.0,648.0,583.0,557.0,6,3
863,-2.71,7.93,4.31,-1.11,1.4,0.56,626.0,639.0,650.0,584.0,563.0,6,3
864,-3.01,8.48,4.59,-1.26,1.73,0.64,624.0,634.0,623.0,585.0,566.0,6,3
865,-3.24,7.75,4.26,-1.11,1.35,0.4,630.0,620.0,596.0,589.0,568.0,6,3
866,-3.49,7.52,3.89,-0.24,0.67,0.07,637.0,604.0,578.0,595.0,568.0,6,3
867,-3.75,6.94,3.49,0.32,0.22,-0.09,641.0,591.0,564.0,598.0,570.0,6,3
868,-3.51,7.32,4.01,0.31,-0.34,-0.05,641.0,588.0,565.0,599.0,571.0,6,3
869,-3.8,8.44,3.62,0.37,-0.65,-0.15,639.0,589.0,569.0,599.0,570.0,6,3
870,-3.42,7.7,3.24,0.4,-1.57,-0.4,631.0,589.0,571.0,595.0,565.0,6,3
871,-3.04,6.85,4.86,0.06,-2.09,-0.42,614.0,583.0,561.0,584.0,554.0,6,3
872,-0.31,7.1,4.07,-0.43,-2.02,-0.5,591.0,565.0,538.0,561.0,532.0,6,3
873,-1.06,7.77,5.63,-0.0,-1.47,-0.52,587.0,558.0,530.0,553.0,520.0,6,3
874,-0.21,7.89,5.81,-0.1,-0.03,-0.26,594.0,567.0,536.0,549.0,518.0,6,3
875,-0.89,7.73,5.41,0.82,0.54,-0.23,608.0,607.0,583.0,558.0,526.0,6,3
876,-2.43,7.67,4.28,0.91,0.84,0.23,637.0,632.0,640.0,576.0,541.0,6,3
877,-2.45,7.63,3.09,0.37,1.48,0.44,620.0,638.0,658.0,587.0,556.0,6,3
878,-2.96,7.47,3.5,-0.25,0.98,0.4,603.0,639.0,662.0,592.0,565.0,6,3
879,-2.96,8.08,4.21,-1.3,1.84,0.53,610.0,636.0,641.0,592.0,570.0,6,3
880,-2.64,7.48,4.2,-1.16,0.93,0.21,629.0,617.0,606.0,594.0,575.0,6,3
881,-3.84,7.16,4.32,-0.52,0.57,0.14,637.0,600.0,589.0,600.0,575.0,6,3
882,-3.21,7.94,3.48,-0.05,-0.18,-0.06,640.0,591.0,581.0,601.0,575.0,6,3
883,-2.79,7.58,3.65,0.41,-0.38,-0.07,639.0,586.0,574.0,602.0,576.0,6,3
884,-3.62,7.32,3.8,0.47,-0.43,-0.13,637.0,588.0,577.0,603.0,574.0,6,3
885,-2.92,7.42,3.56,0.09,-0.52,-0.12,637.0,591.0,578.0,600.0,569.0,6,3
886,-4.47,7.63,4.09,0.17,-1.31,-0.32,636.0,588.0,563.0,590.0,560.0,6,3
887,-2.04,7.57,4.42,-0.24,-2.2,-0.43,629.0,586.0,537.0,571.0,541.0,6,3
888,-1.82,7.57,3.87,-0.33,-2.16,-0.94,621.0,590.0,528.0,560.0,527.0,6,3
889,-1.45,7.65,5.79,0.35,-0.93,-0.71,619.0,592.0,529.0,557.0,523.0,6,3
890,0.99,8.4,4.72,0.22,0.46,-0.16,623.0,610.0,547.0,565.0,532.0,6,3
891,-1.67,7.57,4.1,0.8,0.63,0.44,642.0,631.0,625.0,582.0,549.0,6,3
892,-4.41,9.19,3.16,0.21,2.21,0.8,647.0,637.0,658.0,595.0,561.0,6,3
893,-1.77,8.18,3.05,-0.55,0.82,0.54,641.0,639.0,662.0,597.0,565.0,6,3
894,-3.31,7.98,4.14,-0.81,0.86,0.5,635.0,639.0,649.0,593.0,566.0,6,3
895,-4.03,7.18,4.74,-1.32,0.92,0.22,638.0,629.0,614.0,592.0,568.0,6,3
896,-3.36,7.51,4.38,-0.74,0.4,-0.06,643.0,616.0,592.0,594.0,570.0,6,3
897,-3.28,7.2,4.1,0.05,0.18,-0.1,645.0,603.0,579.0,598.0,573.0,6,3
898,-3.33,6.68,4.11,0.19,-0.07,-0.11,645.0,591.0,571.0,598.0,573.0,6,3
899,-3.09,7.3,4.02,0.27,-0.05,-0.06,643.0,588.0,569.0,599.0,573.0,6,3
900,-2.23,7.15,5.14,-0.02,-0.02,-0.01,634.0,588.0,581.0,581.0,556.0,7,3
901,-2.25,7.25,4.89,-0.05,-0.02,0.01,633.0,589.0,581.0,581.0,556.0,7,3
902,-2.32,7.55,4.88,-0.17,0.11,-0.03,633.0,594.0,589.0,582.0,556.0,7,3
903,-0.66,7.4,4.77,-0.26,0.22,0.48,636.0,615.0,609.0,582.0,556.0,7,3
904,-2.09,6.9,4.42,0.41,0.47,0.35,638.0,628.0,629.0,588.0,562.0,7,3
905,-2.34,8.15,4.23,0.11,0.84,-0.13,634.0,632.0,637.0,591.0,565.0,7,3
906,-2.23,8.08,4.44,0.01,0.16,0.12,634.0,633.0,638.0,592.0,567.0,7,3
907,-2.63,7.16,4.86,-0.23,0.01,0.03,633.0,633.0,631.0,591.0,566.0,7,3
908,-3.69,6.29,4.93,-0.47,0.27,0.09,632.0,631.0,624.0,589.0,566.0,7,3
909,-3.17,5.84,4.39,-0.61,-0.3,0.36,632.0,622.0,613.0,591.0,566.0,7,3
910,-1.54,8.53,5.94,-0.34,0.38,0.33,634.0,614.0,608.0,592.0,568.0,7,3
911,-2.53,6.61,5.05,-0.62,0.28,0.34,635.0,608.0,600.0,592.0,567.0,7,3
912,-3.61,6.58,5.6,-0.76,1.03,0.47,635.0,604.0,594.0,593.0,567.0,7,3
913,-4.88,5.84,6.22,-0.57,-0.1,0.22,635.0,596.0,577.0,594.0,567.0,7,3
914,-2.11,5.88,5.01,0.46,-1.11,-0.21,636.0,583.0,560.0,593.0,566.0,7,3
915,-2.88,6.71,5.38,0.68,-1.47,-0.25,635.0,569.0,546.0,591.0,567.0,7,3
916,-3.03,6.66,5.41,0.59,-1.38,-0.4,632.0,565.0,536.0,583.0,563.0,7,3
917,-1.62,7.58,4.83,0.45,-2.33,-0.75,620.0,558.0,523.0,570.0,546.0,7,3
918,-0.45,7.98,5.22,0.73,-2.45,-1.06,603.0,555.0,517.0,558.0,529.0,7,3
919,3.21,8.22,5.38,-0.04,-1.15,-0.9,596.0,573.0,520.0,557.0,528.0,7,3
920,2.49,8.11,5.77,0.34,1.45,-0.27,605.0,600.0,541.0,563.0,536.0,7,3
921,-2.32,7.34,3.82,0.48,2.52,0.64,634.0,628.0,628.0,582.0,554.0,7,3
922,-2.56,7.09,3.95,-0.26,2.28,1.11,639.0,637.0,658.0,600.0,568.0,7,3
923,-2.4,7.97,3.88,-0.61,2.99,0.81,621.0,639.0,659.0,608.0,576.0,7,3
924,-1.99,7.88,4.22,-1.18,2.1,0.89,624.0,632.0,631.0,608.0,577.0,7,3
925,-2.93,7.35,4.19,-1.24,1.01,0.66,632.0,619.0,599.0,607.0,578.0,7,3
926,-4.07,7.12,5.37,-0.64,0.56,0.31,638.0,611.0,586.0,607.0,576.0,7,3
927,-4.59,7.56,4.35,0.11,-0.32,-0.25,642.0,598.0,569.0,604.0,575.0,7,3
928,-2.72,6.81,3.69,0.42,-0.97,-0.43,643.0,583.0,551.0,599.0,575.0,7,3
929,-2.58,6.59,5.53,0.47,-1.02,-0.35,642.0,581.0,554.0,595.0,573.0,7,3
930,-1.33,6.68,3.27,-0.19,-1.79,-0.36,638.0,574.0,545.0,585.0,566.0,7,3
931,-4.38,7.6,4.66,0.86,-3.17,-1.3,633.0,570.0,535.0,573.0,556.0,7,3
932,-0.44,7.04,5.01,0.19,-2.79,-1.05,620.0,564.0,528.0,565.0,538.0,7,3
933,-0.18,7.91,5.23,0.73,-2.45,-1.36,613.0,572.0,532.0,556.0,527.0,7,3
934,2.72,7.9,4.82,-0.23,0.59,-0.16,609.0,577.0,548.0,557.0,529.0,7,3
935,1.32,7.9,5.15,0.69,1.5,0.27,630.0,615.0,610.0,573.0,545.0,7,3
936,-1.55,7.33,4.83,-0.01,2.39,0.86,642.0,634.0,648.0,590.0,557.0,7,3
937,-1.61,6.75,3.43,-0.17,3.03,0.45,634.0,637.0,659.0,600.0,568.0,7,3
938,-3.62,7.15,3.9,-0.87,1.54,0.94,623.0,637.0,653.0,601.0,570.0,7,3
939,-4.59,7.74,4.64,-1.63,1.71,0.58,628.0,629.0,619.0,601.0,572.0,7,3
940,-4.18,7.05,5.11,-1.18,1.2,0.19,637.0,614.0,595.0,601.0,573.0,7,3
941,-3.89,6.35,4.23,-0.12,0.44,0.04,642.0,602.0,584.0,604.0,573.0,7,3
942,-3.39,6.84,4.17,0.21,-0.29,-0.13,642.0,595.0,578.0,604.0,573.0,7,3
943,-3.75,7.04,4.53,0.26,-0.79,-0.13,642.0,589.0,574.0,603.0,571.0,7,3
944,-3.28,7.37,4.27,0.16,-1.21,-0.25,637.0,582.0,568.0,598.0,567.0,7,3
945,-1.42,6.95,3.71,0.41,-2.11,-0.74,629.0,577.0,552.0,585.0,559.0,7,3
946,-3.1,6.77,5.08,0.14,-2.94,-0.93,618.0,566.0,536.0,569.0,544.0,7,3
947,-1.42,6.93,6.27,-0.51,-2.64,-1.12,600.0,552.0,520.0,549.0,518.0,7,3
948,-0.0,6.78,5.93,0.8,-2.5,-1.53,595.0,555.0,522.0,547.0,516.0,7,3
949,0.48,7.35,6.01,-0.24,0.15,-0.17,596.0,570.0,529.0,551.0,519.0,7,3
950,0.15,7.22,5.31,0.25,1.5,0.28,604.0,594.0,552.0,559.0,530.0,7,3
951,-1.07,6.95,4.91,0.64,1.76,0.33,638.0,626.0,619.0,570.0,541.0,7,3
952,-2.83,6.67,4.97,-0.51,1.0,1.32,645.0,633.0,645.0,576.0,552.0,7,3
953,-3.15,7.88,5.01,-0.22,2.28,0.65,635.0,636.0,649.0,578.0,553.0,7,3
954,-2.21,5.97,4.33,-0.63,1.45,0.75,630.0,636.0,645.0,579.0,558.0,7,3
955,-4.34,7.26,5.67,-0.72,1.16,0.69,630.0,630.0,629.0,584.0,563.0,7,3
956,-2.53,6.82,4.97,-0.7,0.66,0.27,635.0,619.0,605.0,595.0,569.0,7,3
957,-3.56,6.82,4.92,-0.44,0.65,0.01,641.0,603.0,585.0,601.0,572.0,7,3
958,-3.96,7.18,4.63,-0.38,0.79,0.13,641.0,590.0,575.0,607.0,576.0,7,3
959,-2.79,7.2,4.36,0.32,-0.16,-0.09,638.0,584.0,571.0,608.0,575.0,7,3
960,-2.7,6.35,4.65,0.23,-0.86,-0.16,636.0,579.0,566.0,607.0,572.0,7,3
961,-4.36,6.77,5.53,0.17,-0.93,-0.33,633.0,577.0,560.0,600.0,564.0,7,3
962,-4.13,6.53,4.57,0.36,-2.22,-0.76,630.0,567.0,543.0,576.0,547.0,7,3
963,-3.39,6.54,5.84,0.53,-2.72,-1.25,620.0,561.0,533.0,560.0,527.0,7,3
964,-0.92,6.72,5.65,0.23,-2.48,-1.38,609.0,564.0,532.0,555.0,519.0,7,3
965,0.23,7.44,5.15,0.05,-0.82,-0.49,606.0,578.0,538.0,554.0,519.0,7,3
966,0.74,7.55,6.1,0.85,0.47,-0.11,614.0,598.0,561.0,560.0,523.0,7,3
967,-0.48,7.78,5.28,0.48,1.59,0.65,645.0,630.0,639.0,582.0,548.0,7,3
968,-1.77,7.63,3.21,0.51,2.65,0.61,648.0,637.0,659.0,600.0,563.0,7,3
969,-3.07,7.3,3.43,-0.38,2.23,0.75,637.0,640.0,664.0,606.0,572.0,7,3
970,-4.94,7.99,4.11,-1.1,1.31,0.59,627.0,639.0,656.0,603.0,576.0,7,3
971,-4.36,7.15,3.7,-1.18,1.3,0.38,633.0,633.0,627.0,601.0,576.0,7,3
972,-3.57,6.59,4.99,-1.2,0.59,0.17,639.0,619.0,605.0,601.0,577.0,7,3
973,-3.99,6.39,4.28,-0.52,0.24,0.12,642.0,606.0,591.0,603.0,577.0,7,3
974,-4.7,6.78,4.57,0.02,-0.46,-0.19,643.0,597.0,583.0,603.0,577.0,7,3
975,-4.16,6.87,4.51,0.22,-0.81,-0.22,643.0,587.0,572.0,600.0,577.0,7,3
976,-2.08,6.68,4.39,0.16,-1.27,-0.19,641.0,580.0,564.0,591.0,571.0,7,3
977,-3.24,7.18,4.19,0.43,-2.49,-0.56,638.0,576.0,555.0,582.0,562.0,7,3
978,-2.77,6.97,5.84,0.31,-1.83,-0.66,628.0,566.0,543.0,574.0,554.0,7,3
979,-1.05,6.89,4.64,0.04,-2.3,-0.65,608.0,549.0,531.0,564.0,537.0,7,3
980,-0.94,7.6,4.72,0.68,-2.19,-0.91,602.0,552.0,530.0,561.0,531.0,7,3
981,1.96,7.51,5.6,0.52,-1.5,-0.7,595.0,553.0,530.0,560.0,530.0,7,3
982,2.09,8.47,5.37,0.41,0.4,-0.19,601.0,568.0,539.0,567.0,537.0,7,3
983,-0.42,7.24,4.15,-0.09,2.59,0.09,613.0,600.0,575.0,575.0,548.0,7,3
984,-2.27,7.15,3.96,0.68,1.85,0.12,641.0,630.0,631.0,580.0,556.0,7,3
985,-3.94,7.98,3.89,-0.48,1.46,0.47,642.0,637.0,649.0,585.0,565.0,7,3
986,-1.58,6.46,4.48,-0.71,1.37,0.4,634.0,639.0,655.0,589.0,572.0,7,3
987,-1.4,8.01,4.56,-1.45,0.84,0.73,634.0,637.0,640.0,593.0,575.0,7,3
988,-2.82,6.63,5.25,-0.81,0.58,0.35,638.0,619.0,606.0,596.0,576.0,7,3
989,-4.67,6.36,4.08,-0.18,0.8,-0.01,642.0,599.0,587.0,601.0,577.0,7,3
990,-3.67,6.93,4.73,0.18,0.5,0.2,642.0,589.0,581.0,605.0,578.0,7,3
991,-3.11,7.63,3.5,0.32,0.02,0.09,640.0,587.0,578.0,609.0,580.0,7,3
992,-4.25,6.98,4.56,0.28,-1.17,-0.18,636.0,587.0,576.0,608.0,579.0,7,3
993,-3.47,6.37,5.03,-0.48,-0.67,-0.32,634.0,573.0,554.0,586.0,556.0,7,3
994,-3.41,6.72,4.33,-0.07,-2.48,-0.7,626.0,555.0,534.0,567.0,532.0,7,3
995,-2.76,6.75,5.92,0.65,-2.72,-1.29,613.0,556.0,529.0,556.0,519.0,7,3
996,-0.72,7.22,5.6,-0.0,-0.88,-0.47,607.0,566.0,533.0,556.0,518.0,7,3
997,0.22,7.69,5.26,0.54,0.15,-0.3,606.0,582.0,544.0,564.0,529.0,7,3
998,-2.32,7.39,5.27,0.69,1.38,0.22,617.0,604.0,575.0,577.0,541.0,7,3
999,-1.47,7.19,3.66,0.41,2.16,0.41,642.0,632.0,641.0,587.0,556.0,7,3
1000,-2.29,7.45,3.58,0.06,0.93,0.72,644.0,638.0,656.0,592.0,567.0,7,3
1001,-3.85,7.86,4.18,-0.11,1.08,0.61,639.0,640.0,659.0,597.0,575.0,7,3
1002,-4.02,8.2,4.02,-0.46,0.75,0.51,634.0,638.0,650.0,599.0,578.0,7,3
1003,-2.87,7.84,3.37,-0.36,0.65,0.27,634.0,637.0,638.0,598.0,580.0,7,3
1004,-3.7,7.41,4.59,-0.58,0.22,0.02,637.0,630.0,614.0,597.0,580.0,7,3
1005,-4.24,7.72,4.38,-0.53,0.22,-0.15,640.0,615.0,592.0,595.0,580.0,7,3
1006,-2.96,7.53,3.09,0.04,-0.01,-0.19,641.0,604.0,580.0,595.0,580.0,7,3
1007,-2.82,7.41,3.47,0.29,-0.67,-0.14,637.0,598.0,578.0,597.0,580.0,7,3
1008,-3.58,7.42,4.28,0.0,-0.47,-0.04,628.0,597.0,579.0,599.0,580.0,7,3
1009,-1.82,7.68,3.61,-0.06,-0.66,-0.06,620.0,595.0,580.0,600.0,579.0,7,3
1010,-3.73,7.45,3.87,0.02,-1.47,-0.19,617.0,591.0,574.0,593.0,570.0,7,3
1011,-3.59,7.17,4.75,-0.01,-1.59,-0.45,615.0,576.0,554.0,581.0,555.0,7,3
1012,-1.16,7.42,4.56,-0.9,-1.74,-0.52,611.0,558.0,536.0,565.0,533.0,7,3
1013,-0.37,7.23,6.4,0.32,-1.41,-0.66,602.0,554.0,534.0,561.0,529.0,7,3
1014,1.52,9.11,5.4,0.48,-0.2,0.14,611.0,580.0,563.0,568.0,537.0,7,3
1015,-2.08,7.32,4.07,0.35,3.29,0.26,634.0,626.0,626.0,582.0,557.0,7,3
1016,-3.26,6.6,2.83,-0.01,2.53,0.38,630.0,636.0,650.0,592.0,573.0,7,3
1017,-3.68,7.74,4.71,-0.97,1.29,0.65,627.0,636.0,647.0,599.0,578.0,7,3
1018,-3.75,7.23,5.26,-1.01,0.81,0.32,635.0,620.0,609.0,604.0,579.0,7,3
1019,-4.53,6.28,4.4,-0.76,1.04,0.19,641.0,601.0,587.0,606.0,578.0,7,3
1020,-4.53,6.85,5.16,-0.13,0.6,0.14,643.0,594.0,582.0,606.0,578.0,7,3
1021,-3.98,6.89,3.82,0.22,-0.16,-0.07,643.0,587.0,571.0,605.0,578.0,7,3
1022,-4.07,7.41,4.22,0.41,-0.25,-0.08,642.0,584.0,569.0,604.0,577.0,7,3
1023,-3.45,6.56,4.21,0.34,-0.52,-0.08,637.0,584.0,570.0,604.0,576.0,7,3
1024,-3.42,7.34,3.82,0.12,-1.14,-0.2,626.0,587.0,574.0,603.0,570.0,7,3
1025,-3.62,6.91,4.73,0.29,-1.5,-0.38,619.0,585.0,568.0,592.0,557.0,7,3
1026,-2.74,6.89,5.33,-0.25,-1.37,-0.32,611.0,574.0,550.0,573.0,539.0,7,3
1027,-3.67,6.44,5.75,0.28,-1.59,-0.64,608.0,563.0,540.0,559.0,521.0,7,3
1028,-0.62,7.16,5.39,-0.12,-1.62,-0.57,593.0,521.0,536.0,550.0,512.0,7,3
1029,1.11,7.94,4.68,0.56,-1.08,-0.49,594.0,582.0,544.0,554.0,515.0,7,3
1030,-1.14,7.76,5.81,0.31,0.96,0.03,608.0,602.0,569.0,566.0,527.0,7,3
1031,-0.89,7.46,3.33,0.37,2.37,0.29,640.0,629.0,634.0,581.0,547.0,7,3
1032,-4.34,7.58,3.64,0.44,2.05,0.19,641.0,637.0,654.0,589.0,559.0,7,3
1033,-3.51,7.06,3.96,-1.18,1.39,0.56,632.0,639.0,657.0,593.0,568.0,7,3
1034,-4.19,7.66,5.19,-1.12,0.98,0.64,635.0,632.0,629.0,595.0,573.0,7,3
1035,-4.78,6.93,3.76,-1.01,1.14,0.09,642.0,607.0,592.0,601.0,576.0,7,3
1036,-3.61,6.56,4.9,-0.48,0.58,0.18,644.0,598.0,584.0,602.0,577.0,7,3
1037,-4.59,6.93,3.39,0.11,-0.25,-0.04,645.0,588.0,574.0,601.0,576.0,7,3
1038,-4.31,7.35,4.19,0.22,-0.17,-0.04,645.0,584.0,573.0,601.0,576.0,7,3
1039,-2.82,6.98,3.75,0.37,-0.9,-0.16,643.0,584.0,571.0,601.0,575.0,7,3
1040,-4.32,6.84,4.58,0.29,-1.35,-0.21,636.0,582.0,571.0,602.0,571.0,7,3
1041,-3.78,6.91,4.87,-0.07,-0.79,-0.22,625.0,582.0,564.0,598.0,565.0,7,3
1042,-3.08,7.32,3.95,-0.05,-1.84,-0.36,608.0,569.0,543.0,581.0,550.0,7,3
1043,-2.52,6.7,5.05,-0.02,-2.48,-0.35,600.0,566.0,524.0,562.0,530.0,7,3
1044,-0.62,6.25,5.63,-0.08,-1.35,-0.79,598.0,581.0,520.0,552.0,519.0,7,3
1045,-0.18,7.58,5.77,0.72,-0.4,-0.5,606.0,591.0,530.0,554.0,522.0,7,3
1046,0.28,7.43,5.76,0.24,1.2,0.29,615.0,611.0,556.0,564.0,533.0,7,3
1047,-2.0,7.48,4.1,1.26,0.84,0.14,642.0,631.0,622.0,581.0,547.0,7,3
1048,-4.12,6.73,4.22,0.15,2.29,0.53,646.0,638.0,656.0,593.0,561.0,7,3
1049,-2.9,8.77,2.79,-0.66,0.88,0.38,637.0,640.0,660.0,594.0,565.0,7,3
1050,-2.65,7.25,5.23,0.0,-0.18,0.02,630.0,575.0,563.0,583.0,555.0,8,3
1051,-3.44,6.75,6.01,1.03,0.33,0.05,639.0,612.0,600.0,587.0,558.0,8,3
1052,-2.05,6.47,3.01,0.5,0.81,0.37,643.0,633.0,636.0,595.0,564.0,8,3
1053,-4.41,7.81,5.0,-0.15,0.93,0.31,636.0,635.0,638.0,595.0,565.0,8,3
1054,-2.19,7.53,3.9,0.09,0.13,0.04,629.0,635.0,643.0,593.0,565.0,8,3
1055,-2.79,8.31,4.1,-0.22,0.41,0.26,628.0,637.0,648.0,593.0,566.0,8,3
1056,-2.87,7.75,3.39,-0.09,0.48,0.19,624.0,637.0,652.0,594.0,567.0,8,3
1057,-2.83,7.37,3.61,-0.22,0.64,0.37,622.0,638.0,652.0,596.0,569.0,8,3
1058,-3.08,7.13,3.73,-0.72,0.58,0.28,624.0,638.0,649.0,596.0,570.0,8,3
1059,-3.03,7.34,4.47,-0.85,0.64,0.39,626.0,638.0,644.0,595.0,571.0,8,3
1060,-3.31,6.79,5.49,-1.01,0.46,0.45,628.0,635.0,624.0,593.0,571.0,8,3
1061,-3.54,6.61,5.81,-1.05,-0.09,0.07,633.0,622.0,599.0,593.0,572.0,8,3
1062,-3.3,6.22,4.74,-0.33,0.12,-0.1,639.0,605.0,578.0,590.0,573.0,8,3
1063,-4.4,6.8,4.92,0.32,-0.77,-0.42,642.0,591.0,565.0,591.0,574.0,8,3
1064,-2.33,7.16,5.23,0.49,-1.3,-0.29,641.0,581.0,558.0,589.0,574.0,8,3
1065,-2.0,6.94,5.04,0.49,-1.75,-0.4,640.0,580.0,559.0,584.0,571.0,8,3
1066,-2.05,6.65,5.64,0.57,-2.41,-0.84,634.0,577.0,551.0,578.0,561.0,8,3
1067,-3.38,6.91,4.45,0.43,-2.95,-1.29,623.0,520.0,541.0,571.0,549.0,8,3
1068,0.4,7.91,4.87,-0.03,-2.4,-0.99,602.0,559.0,533.0,564.0,535.0,8,3
1069,2.62,7.24,6.22,0.19,-0.77,-0.51,594.0,558.0,530.0,560.0,529.0,8,3
1070,3.29,6.56,6.45,-0.22,2.34,0.03,602.0,586.0,538.0,563.0,536.0,8,3
1071,-2.76,7.7,6.99,0.32,2.28,0.82,633.0,617.0,604.0,576.0,555.0,8,3
1072,-0.74,6.17,3.28,-0.08,2.78,0.62,627.0,636.0,647.0,593.0,572.0,8,3
1073,-3.77,6.71,5.55,-0.89,1.82,0.72,619.0,637.0,645.0,603.0,579.0,8,3
1074,-4.04,6.92,5.61,-1.0,1.82,0.61,627.0,626.0,615.0,602.0,579.0,8,3
1075,-4.31,6.53,5.05,-0.85,1.43,0.42,633.0,613.0,598.0,605.0,578.0,8,3
1076,-4.54,6.82,4.63,0.11,0.44,0.11,637.0,605.0,586.0,607.0,577.0,8,3
1077,-3.47,6.23,4.13,0.33,-0.33,0.02,639.0,594.0,575.0,607.0,578.0,8,3
1078,-3.64,6.9,4.81,0.41,-0.61,0.08,636.0,589.0,572.0,607.0,577.0,8,3
1079,-2.22,6.66,3.87,0.29,-1.42,-0.1,631.0,584.0,565.0,601.0,568.0,8,3
1080,-3.64,7.07,4.43,0.07,-1.72,-0.36,631.0,576.0,554.0,585.0,557.0,8,3
1081,-3.2,7.07,5.42,0.12,-1.76,-0.58,618.0,563.0,542.0,568.0,540.0,8,3
1082,-2.45,7.1,5.35,0.1,-2.58,-1.16,598.0,552.0,531.0,554.0,523.0,8,3
1083,1.07,7.6,5.39,0.52,-1.95,-0.68,586.0,545.0,529.0,550.0,518.0,8,3
1084,0.85,7.67,5.48,0.22,-0.55,-0.42,583.0,560.0,534.0,552.0,520.0,8,3
1085,0.67,7.78,4.73,0.62,0.41,-0.31,592.0,582.0,549.0,563.0,531.0,8,3
1086,-1.58,7.51,5.01,-0.18,2.15,0.21,627.0,619.0,610.0,574.0,545.0,8,3
1087,-1.7,7.92,3.41,-0.25,1.86,0.75,641.0,634.0,645.0,578.0,553.0,8,3
1088,-2.94,7.44,4.19,-0.44,2.21,0.56,638.0,637.0,650.0,578.0,556.0,8,3
1089,-1.61,7.14,3.94,-1.0,2.0,0.79,637.0,635.0,632.0,579.0,556.0,8,3
1090,-4.39,7.47,4.81,-1.16,1.39,0.61,638.0,619.0,611.0,591.0,562.0,8,3
1091,-4.49,6.75,4.64,-0.6,1.08,0.29,640.0,607.0,595.0,607.0,567.0,8,3
1092,-4.58,6.9,4.23,0.05,0.43,0.02,642.0,597.0,587.0,612.0,570.0,8,3
1093,-3.92,7.04,3.88,0.25,-0.26,-0.08,639.0,592.0,582.0,612.0,572.0,8,3
1094,-4.31,7.54,3.95,0.32,-0.64,-0.07,632.0,589.0,582.0,613.0,571.0,8,3
1095,-3.61,7.45,4.23,0.44,-0.86,-0.13,610.0,586.0,580.0,610.0,568.0,8,3
1096,-3.99,6.83,4.4,-0.03,-0.91,-0.06,592.0,582.0,575.0,601.0,557.0,8,3
1097,-2.45,6.76,4.13,-0.15,-0.95,-0.13,581.0,575.0,563.0,585.0,544.0,8,3
1098,-3.6,6.69,4.79,0.17,-2.53,-0.6,567.0,524.0,550.0,563.0,526.0,8,3
1099,-3.03,6.62,5.76,-0.01,-1.83,-0.77,558.0,555.0,542.0,551.0,509.0,8,3
1100,0.62,7.83,4.96,0.12,-1.57,-0.52,558.0,552.0,541.0,549.0,502.0,8,3
1101,-0.47,7.03,5.68,0.6,-1.09,-0.75,567.0,549.0,545.0,550.0,503.0,8,3
1102,-0.55,8.09,5.29,0.55,0.82,-0.21,588.0,0.0,559.0,560.0,514.0,8,3
1103,-0.54,8.0,4.65,0.54,1.23,0.3,613.0,609.0,608.0,574.0,533.0,8,3
1104,-1.35,8.03,3.14,0.35,1.06,0.52,638.0,633.0,647.0,589.0,550.0,8,3
1105,-4.05,7.18,2.43,0.08,3.04,0.24,635.0,639.0,658.0,597.0,567.0,8,3
1106,-2.44,7.61,3.73,-1.38,1.23,0.62,627.0,638.0,650.0,597.0,572.0,8,3
1107,-3.85,7.36,4.59,-1.31,1.34,0.47,631.0,626.0,619.0,598.0,576.0,8,3
1108,-4.3,6.97,4.55,-1.09,1.05,0.27,637.0,610.0,597.0,604.0,577.0,8,3
1109,-4.16,6.49,4.35,-0.33,0.44,0.15,640.0,600.0,586.0,605.0,576.0,8,3
1110,-4.52,6.9,4.02,-0.13,0.39,0.07,642.0,592.0,579.0,605.0,575.0,8,3
1111,-2.76,7.17,3.66,0.15,-0.46,-0.04,642.0,585.0,572.0,605.0,573.0,8,3
1112,-4.79,6.74,4.67,0.41,-0.62,-0.1,640.0,584.0,573.0,606.0,574.0,8,3
1113,-3.46,6.79,4.29,0.12,-0.88,-0.11,637.0,584.0,571.0,605.0,568.0,8,3
1114,-2.56,7.16,3.47,-0.14,-2.04,-0.34,635.0,579.0,563.0,594.0,558.0,8,3
1115,-4.66,6.88,6.16,0.65,-1.85,-0.81,629.0,572.0,550.0,576.0,547.0,8,3
1116,-2.37,6.88,4.58,-0.02,-1.65,-0.66,617.0,568.0,545.0,567.0,536.0,8,3
1117,-0.76,7.57,4.99,0.23,-1.83,-0.64,606.0,564.0,544.0,562.0,532.0,8,3
1118,-1.14,7.8,6.0,-0.03,-0.65,-0.37,605.0,575.0,546.0,561.0,531.0,8,3
1119,0.29,8.19,4.89,1.2,0.44,-0.33,615.0,598.0,579.0,571.0,542.0,8,3
1120,-2.06,8.06,4.11,0.35,2.35,0.42,639.0,631.0,642.0,586.0,556.0,8,3
1121,-2.48,7.13,2.33,0.05,2.09,0.52,640.0,639.0,660.0,597.0,570.0,8,3
1122,-3.92,7.7,3.56,-1.09,2.03,0.63,632.0,639.0,657.0,602.0,576.0,8,3
1123,-3.47,7.9,5.23,-1.38,1.32,0.52,634.0,626.0,618.0,604.0,579.0,8,3
1124,-4.98,6.75,3.97,-1.11,1.12,0.28,640.0,609.0,596.0,608.0,579.0,8,3
1125,-5.21,6.75,4.7,-0.65,0.87,0.33,642.0,602.0,591.0,612.0,579.0,8,3
1126,-4.37,6.92,3.02,-0.07,0.1,0.09,643.0,592.0,581.0,612.0,579.0,8,3
1127,-4.58,6.51,3.86,0.34,-0.53,-0.12,643.0,589.0,577.0,612.0,577.0,8,3
1128,-4.41,6.91,4.48,0.27,-1.2,-0.08,636.0,587.0,575.0,610.0,574.0,8,3
1129,-4.14,7.52,2.94,-0.06,-1.37,-0.35,623.0,585.0,575.0,603.0,567.0,8,3
1130,-5.28,7.02,6.04,0.28,-1.36,-0.73,617.0,572.0,557.0,581.0,551.0,8,3
1131,-2.99,6.98,4.01,0.39,-2.47,-0.88,611.0,559.0,540.0,561.0,531.0,8,3
1132,-4.15,7.08,4.99,1.21,-3.53,-1.57,595.0,557.0,535.0,551.0,518.0,8,3
1133,1.24,7.34,5.76,0.08,-0.54,-0.68,589.0,566.0,535.0,549.0,517.0,8,3
1134,0.3,7.28,5.42,0.39,0.26,-0.13,599.0,582.0,549.0,556.0,525.0,8,3
1135,-2.6,8.05,4.7,0.87,1.68,0.22,631.0,612.0,597.0,572.0,540.0,8,3
1136,-1.92,7.47,2.71,-0.08,2.37,0.65,643.0,635.0,644.0,588.0,559.0,8,3
1137,-2.25,7.76,2.89,-0.31,2.97,0.7,638.0,638.0,656.0,597.0,573.0,8,3
1138,-4.29,7.06,4.02,-0.95,1.92,0.54,634.0,636.0,654.0,607.0,581.0,8,3
1139,-2.87,6.68,3.73,-1.44,1.7,0.84,637.0,626.0,622.0,611.0,584.0,8,3
1140,-4.97,7.43,3.86,-0.95,1.17,0.57,639.0,617.0,604.0,613.0,585.0,8,3
1141,-4.63,6.59,4.66,-0.58,0.28,0.18,643.0,606.0,588.0,612.0,585.0,8,3
1142,-4.49,7.26,3.16,-0.16,-0.01,-0.04,643.0,593.0,573.0,606.0,585.0,8,3
1143,-4.8,8.0,3.06,0.53,-0.83,-0.3,643.0,587.0,566.0,605.0,584.0,8,3
1144,-3.85,6.81,4.27,0.57,-1.34,-0.3,639.0,583.0,563.0,604.0,582.0,8,3
1145,-3.3,6.81,3.52,0.02,-0.89,-0.13,605.0,580.0,563.0,602.0,578.0,8,3
1146,-3.45,7.32,4.65,-0.22,-1.99,-0.49,559.0,573.0,555.0,594.0,565.0,8,3
1147,-4.78,6.64,5.55,-0.41,-2.03,-0.76,537.0,556.0,534.0,573.0,543.0,8,3
1148,-2.12,6.93,6.19,-0.15,-1.83,-0.89,536.0,543.0,522.0,555.0,524.0,8,3
1149,0.4,7.35,5.06,0.15,-2.22,-1.12,542.0,540.0,517.0,546.0,517.0,8,3
1150,0.61,7.4,6.4,0.55,-0.25,-0.44,561.0,549.0,525.0,550.0,522.0,8,3
1151,-0.03,8.15,6.62,0.74,0.96,0.35,603.0,588.0,554.0,562.0,535.0,8,3
1152,-1.67,7.49,3.93,0.85,2.26,0.38,631.0,626.0,617.0,581.0,554.0,8,3
1153,-2.31,7.06,2.64,0.25,1.99,0.16,628.0,637.0,649.0,591.0,568.0,8,3
1154,-4.79,7.21,3.22,-0.9,2.6,0.42,624.0,637.0,650.0,604.0,580.0,8,3
1155,-4.19,8.24,4.59,-1.2,1.18,0.43,630.0,623.0,615.0,608.0,583.0,8,3
1156,-4.67,7.13,3.96,-1.04,1.24,0.22,639.0,609.0,597.0,612.0,584.0,8,3
1157,-4.55,6.58,3.56,-0.47,0.65,0.21,642.0,595.0,582.0,612.0,582.0,8,3
1158,-6.45,7.15,3.11,0.2,-0.14,-0.0,641.0,591.0,576.0,609.0,578.0,8,3
1159,-5.29,7.34,3.72,0.43,-0.38,-0.0,642.0,591.0,575.0,608.0,577.0,8,3
1160,-2.75,7.01,3.19,0.19,-1.05,0.04,635.0,590.0,572.0,606.0,571.0,8,3
1161,-4.45,7.32,3.92,0.16,-0.92,0.03,622.0,588.0,571.0,600.0,565.0,8,3
1162,-3.03,7.13,4.62,-0.18,-1.06,-0.1,596.0,582.0,564.0,590.0,551.0,8,3
1163,-2.91,7.59,2.99,-0.23,-2.19,-0.18,592.0,538.0,541.0,567.0,532.0,8,3
1164,-4.33,6.6,6.39,-0.22,-1.68,-0.66,574.0,537.0,526.0,544.0,512.0,8,3
1165,-1.95,7.32,4.81,0.24,-2.39,-1.23,565.0,516.0,523.0,541.0,507.0,8,3
1166,-0.94,6.71,5.92,0.51,-1.32,-0.79,564.0,553.0,523.0,542.0,508.0,8,3
1167,1.16,7.63,5.72,0.18,0.22,-0.23,571.0,560.0,529.0,548.0,513.0,8,3
1168,-2.01,7.5,5.16,0.08,2.35,0.4,587.0,578.0,554.0,561.0,527.0,8,3
1169,-4.18,7.92,4.04,0.57,1.51,0.38,625.0,618.0,614.0,574.0,543.0,8,3
1170,-2.61,7.06,3.32,0.32,1.56,0.65,640.0,635.0,650.0,583.0,553.0,8,3
1171,-3.92,7.61,3.72,-0.11,1.69,0.63,633.0,638.0,659.0,589.0,560.0,8,3
1172,-2.71,6.82,3.49,-0.97,1.53,0.57,625.0,638.0,650.0,592.0,566.0,8,3
1173,-4.19,7.75,3.65,-1.14,1.26,0.45,632.0,620.0,617.0,596.0,574.0,8,3
1174,-4.61,7.3,3.45,-0.68,0.93,0.14,641.0,605.0,594.0,605.0,576.0,8,3
1175,-5.04,7.07,4.09,-0.39,0.38,0.01,643.0,595.0,586.0,606.0,574.0,8,3
1176,-3.64,7.02,3.15,-0.02,-0.19,-0.06,644.0,590.0,579.0,606.0,574.0,8,3
1177,-4.3,7.19,3.73,0.29,-0.68,-0.15,644.0,586.0,575.0,607.0,573.0,8,3
1178,-3.96,6.99,3.38,0.25,-1.1,-0.2,642.0,584.0,573.0,607.0,570.0,8,3
1179,-2.79,7.13,3.68,0.03,-0.95,-0.21,630.0,582.0,568.0,603.0,564.0,8,3
1180,-3.41,6.88,3.83,0.13,-1.31,-0.38,626.0,576.0,558.0,589.0,554.0,8,3
1181,-3.45,6.5,5.06,-0.46,-1.02,-0.27,603.0,499.0,528.0,558.0,528.0,8,3
1182,-5.08,6.74,5.32,0.98,-1.69,-1.31,597.0,557.0,520.0,546.0,521.0,8,3
1183,-3.94,7.29,5.08,0.28,-0.93,-0.86,594.0,554.0,519.0,546.0,521.0,8,3
1184,0.46,7.94,3.83,0.7,-0.94,-0.43,596.0,564.0,534.0,552.0,526.0,8,3
1185,-2.63,7.72,5.22,0.85,0.72,0.19,615.0,592.0,564.0,565.0,536.0,8,3
1186,-2.89,7.74,3.39,0.34,1.96,0.51,640.0,630.0,634.0,587.0,558.0,8,3
1187,-3.34,6.63,1.44,-0.0,2.26,0.75,641.0,637.0,658.0,606.0,581.0,8,3
1188,-4.38,8.29,3.52,-0.74,0.88,0.54,633.0,639.0,659.0,608.0,584.0,8,3
1189,-4.04,7.76,3.51,-1.13,2.02,0.73,633.0,637.0,645.0,607.0,584.0,8,3
1190,-3.75,7.71,3.6,-1.23,0.99,0.31,637.0,626.0,619.0,607.0,585.0,8,3
1191,-5.22,7.31,4.64,-0.96,0.33,0.14,642.0,613.0,600.0,608.0,583.0,8,3
1192,-4.25,6.69,3.11,-0.13,0.05,-0.13,645.0,600.0,584.0,607.0,583.0,8,3
1193,-4.22,6.79,3.89,0.23,-0.39,-0.16,646.0,592.0,575.0,604.0,582.0,8,3
1194,-4.22,7.11,3.84,0.32,-0.26,-0.03,645.0,587.0,572.0,604.0,582.0,8,3
1195,-3.69,7.65,3.04,0.46,-1.07,-0.17,641.0,587.0,570.0,606.0,580.0,8,3
1196,-4.72,7.44,3.81,0.06,-2.1,-0.35,619.0,583.0,562.0,596.0,568.0,8,3
1197,-3.86,6.45,4.91,-0.23,-0.92,-0.37,618.0,573.0,547.0,583.0,557.0,8,3
1198,-2.05,6.92,4.4,0.1,-2.19,-0.65,611.0,558.0,532.0,569.0,543.0,8,3
1199,-2.71,6.6,5.19,0.24,-2.73,-1.11,583.0,535.0,521.0,553.0,527.0,8,3
1200,-2.13,4.5,7.57,0.98,-0.39,0.19,620.0,566.0,547.0,571.0,549.0,9,3
1201,-1.99,5.67,6.38,1.23,0.59,0.36,636.0,590.0,570.0,581.0,558.0,9,3
1202,-2.6,5.24,5.97,1.8,0.73,0.2,640.0,601.0,587.0,592.0,568.0,9,3
1203,-4.01,6.46,5.39,1.44,1.1,-0.05,643.0,609.0,603.0,600.0,576.0,9,3
1204,-3.74,8.27,5.84,0.56,0.51,-0.22,645.0,607.0,603.0,602.0,577.0,9,3
1205,-4.35,7.23,5.26,-0.58,0.85,-0.41,645.0,604.0,596.0,602.0,577.0,9,3
1206,-2.78,5.36,4.34,-0.76,0.74,-0.4,645.0,601.0,592.0,600.0,573.0,9,3
1207,-3.98,5.01,3.62,-0.56,0.79,-0.14,645.0,600.0,591.0,599.0,573.0,9,3
1208,-4.84,4.43,3.25,-1.13,0.66,0.53,645.0,602.0,590.0,598.0,571.0,9,3
1209,-3.77,5.9,4.65,-0.47,-0.26,0.93,645.0,605.0,597.0,599.0,572.0,9,3
1210,-4.56,7.32,3.96,0.22,0.62,1.06,645.0,616.0,616.0,602.0,574.0,9,3
1211,-3.68,9.96,6.55,0.21,0.75,1.11,642.0,633.0,647.0,608.0,577.0,9,3
1212,-3.22,5.38,2.66,-0.91,0.58,1.08,640.0,638.0,656.0,609.0,579.0,9,3
1213,-6.08,8.43,6.18,-1.02,1.55,0.98,639.0,632.0,629.0,606.0,575.0,9,3
1214,-3.71,5.91,5.17,-0.61,0.43,0.42,642.0,613.0,595.0,602.0,573.0,9,3
1215,-5.5,6.28,4.87,0.16,0.37,0.13,644.0,598.0,579.0,603.0,572.0,9,3
1216,-4.38,6.85,3.81,0.32,-0.15,0.1,643.0,592.0,577.0,605.0,574.0,9,3
1217,-3.56,7.26,3.54,0.7,-1.04,-0.1,635.0,591.0,583.0,609.0,573.0,9,3
1218,-5.77,7.34,3.95,0.71,-1.76,-0.36,626.0,589.0,580.0,603.0,566.0,9,3
1219,-2.47,7.02,5.15,-0.48,-2.38,-0.5,609.0,581.0,559.0,582.0,551.0,9,3
1220,-3.08,6.16,4.35,0.58,-3.41,-1.58,611.0,576.0,554.0,564.0,533.0,9,3
1221,-3.31,6.4,6.12,-0.49,-2.26,-1.45,591.0,572.0,549.0,554.0,517.0,9,3
1222,-0.08,7.3,5.44,0.84,-2.69,-1.19,586.0,580.0,555.0,555.0,515.0,9,3
1223,2.4,7.73,6.37,0.91,-0.05,-0.63,601.0,595.0,570.0,562.0,521.0,9,3
1224,3.2,8.63,5.54,0.08,1.73,0.4,639.0,630.0,637.0,582.0,546.0,9,3
1225,-3.25,5.85,4.35,-0.11,3.75,0.6,645.0,638.0,658.0,594.0,564.0,9,3
1226,-5.39,6.17,5.13,-0.97,3.64,0.95,638.0,640.0,661.0,604.0,577.0,9,3
1227,-3.19,6.93,4.24,-1.64,1.91,1.12,629.0,635.0,633.0,604.0,580.0,9,3
1228,-4.19,6.99,4.08,-1.53,1.54,0.66,636.0,621.0,609.0,600.0,580.0,9,3
1229,-4.6,6.0,3.46,-0.54,0.93,0.51,641.0,608.0,595.0,601.0,574.0,9,3
1230,-6.68,6.22,4.34,0.29,-0.07,0.04,644.0,600.0,587.0,600.0,573.0,9,3
1231,-5.78,6.5,4.02,0.5,-0.88,-0.09,642.0,592.0,579.0,600.0,572.0,9,3
1232,-4.55,7.11,3.21,0.48,-2.29,-0.32,630.0,583.0,568.0,591.0,562.0,9,3
1233,-4.65,7.01,5.18,0.2,-2.34,-0.74,597.0,576.0,552.0,575.0,544.0,9,3
1234,-1.15,6.86,4.12,-0.23,-3.4,-1.36,569.0,564.0,546.0,558.0,522.0,9,3
1235,-1.52,6.36,7.09,0.78,-2.87,-1.4,561.0,559.0,543.0,553.0,516.0,9,3
1236,-0.24,6.26,5.74,-0.15,-1.62,-0.82,567.0,564.0,548.0,556.0,518.0,9,3
1237,2.01,7.26,6.16,0.38,0.34,-0.15,586.0,582.0,560.0,563.0,526.0,9,3
1238,0.39,7.87,6.09,1.18,2.42,0.31,625.0,624.0,624.0,587.0,557.0,9,3
1239,-3.38,5.88,2.11,0.03,4.79,0.68,640.0,640.0,665.0,612.0,583.0,9,3
1240,-6.82,7.73,4.84,-0.78,4.93,1.12,629.0,640.0,667.0,620.0,585.0,9,3
1241,-3.05,7.09,2.61,-1.76,2.72,1.13,627.0,638.0,660.0,620.0,586.0,9,3
1242,-4.62,7.87,4.71,-1.31,0.9,0.82,633.0,622.0,609.0,614.0,584.0,9,3
1243,-4.77,6.18,3.24,-0.74,0.59,0.24,641.0,603.0,588.0,610.0,580.0,9,3
1244,-6.26,7.4,3.83,0.04,0.06,0.03,644.0,596.0,581.0,607.0,580.0,9,3
1245,-4.71,7.02,2.76,0.1,-2.34,-0.72,644.0,591.0,575.0,604.0,580.0,9,3
1246,-3.99,7.19,3.87,-0.06,-2.69,-0.87,643.0,584.0,566.0,597.0,578.0,9,3
1247,-0.58,5.72,5.35,0.09,-3.46,-1.35,615.0,580.0,552.0,581.0,564.0,9,3
1248,-3.16,4.88,5.01,0.64,-3.25,-2.05,605.0,573.0,544.0,572.0,553.0,9,3
1249,-1.76,6.12,7.3,0.43,-2.58,-1.48,597.0,569.0,544.0,566.0,540.0,9,3
1250,2.09,7.83,5.33,0.64,-1.99,-0.6,601.0,573.0,543.0,565.0,538.0,9,3
1251,1.64,6.68,6.09,0.43,-0.36,-0.21,605.0,581.0,544.0,566.0,539.0,9,3
1252,0.84,7.05,6.71,-0.23,1.56,0.35,612.0,592.0,551.0,571.0,543.0,9,3
1253,-1.22,7.31,4.24,0.88,3.29,0.34,636.0,625.0,615.0,586.0,559.0,9,3
1254,-3.14,6.35,5.35,-0.52,2.46,0.9,647.0,637.0,649.0,590.0,566.0,9,3
1255,-4.97,6.83,3.39,-1.65,4.01,0.74,639.0,638.0,646.0,590.0,570.0,9,3
1256,-5.14,6.9,5.1,-1.4,2.52,1.24,639.0,630.0,620.0,590.0,574.0,9,3
1257,-6.78,5.77,5.15,-0.94,1.73,0.84,642.0,613.0,598.0,604.0,578.0,9,3
1258,-5.33,6.14,3.57,-0.24,1.18,0.47,645.0,602.0,587.0,612.0,579.0,9,3
1259,-5.81,6.96,2.94,0.32,-0.18,-0.06,645.0,597.0,580.0,610.0,579.0,9,3
1260,-4.97,6.82,3.99,0.91,-0.26,-0.32,644.0,596.0,581.0,609.0,576.0,9,3
1261,-4.4,5.97,3.62,0.35,-0.96,-0.1,639.0,595.0,575.0,611.0,570.0,9,3
1262,-5.69,6.89,3.54,0.16,-1.55,-0.51,627.0,594.0,572.0,604.0,562.0,9,3
1263,-5.4,7.25,4.21,0.14,-2.54,-1.08,600.0,583.0,548.0,584.0,549.0,9,3
1264,-4.82,7.47,4.43,1.09,-4.67,-1.6,580.0,567.0,529.0,565.0,526.0,9,3
1265,-2.11,6.17,6.14,0.59,-2.92,-1.35,570.0,569.0,528.0,558.0,513.0,9,3
1266,1.57,8.21,4.92,0.65,-1.96,-0.82,574.0,579.0,530.0,557.0,507.0,9,3
1267,1.08,7.66,5.87,0.71,0.41,0.15,596.0,595.0,544.0,562.0,513.0,9,3
1268,0.38,7.54,3.92,0.41,3.02,0.61,638.0,625.0,607.0,577.0,536.0,9,3
1269,-4.52,6.71,3.44,-0.38,3.92,0.64,644.0,636.0,643.0,590.0,558.0,9,3
1270,-4.15,7.97,3.03,-0.87,2.9,0.55,635.0,638.0,653.0,595.0,570.0,9,3
1271,-4.92,6.51,3.62,-1.13,2.39,0.92,621.0,638.0,647.0,596.0,575.0,9,3
1272,-5.3,6.97,4.03,-1.55,1.55,0.59,628.0,624.0,611.0,602.0,578.0,9,3
1273,-4.36,6.51,3.56,-0.53,-0.25,0.19,639.0,601.0,576.0,604.0,575.0,9,3
1274,-6.28,6.59,2.94,0.46,-0.07,-0.23,642.0,586.0,559.0,598.0,575.0,9,3
1275,-3.62,7.29,3.51,0.62,-0.17,0.08,639.0,586.0,559.0,600.0,575.0,9,3
1276,-3.22,7.07,2.36,0.56,-0.55,0.01,627.0,592.0,571.0,604.0,574.0,9,3
1277,-6.95,7.43,3.6,-0.01,-1.82,-0.37,602.0,597.0,577.0,604.0,561.0,9,3
1278,-5.08,7.1,4.38,-0.55,-1.16,-0.44,570.0,587.0,558.0,578.0,544.0,9,3
1279,-1.86,7.08,4.46,-0.12,-2.19,-0.88,561.0,572.0,541.0,560.0,525.0,9,3
1280,-3.41,6.37,5.44,0.05,-2.65,-1.0,556.0,567.0,535.0,553.0,518.0,9,3
1281,-1.75,6.76,5.43,0.57,-2.28,-0.81,562.0,571.0,537.0,555.0,519.0,9,3
1282,-1.04,9.64,5.25,0.54,-0.88,-0.4,574.0,577.0,538.0,559.0,523.0,9,3
1283,1.51,7.6,6.32,0.55,1.19,0.19,591.0,591.0,549.0,571.0,534.0,9,3
1284,-1.63,7.32,4.58,0.54,3.04,0.39,631.0,624.0,613.0,585.0,553.0,9,3
1285,-5.5,6.56,3.86,-0.0,3.14,0.18,638.0,638.0,648.0,593.0,567.0,9,3
1286,-6.22,6.35,4.14,-1.6,2.36,0.49,626.0,640.0,654.0,597.0,577.0,9,3
1287,-4.86,7.34,3.64,-1.02,1.65,0.64,626.0,638.0,642.0,599.0,579.0,9,3
1288,-6.18,6.36,4.05,-1.02,0.93,0.47,633.0,623.0,606.0,602.0,579.0,9,3
1289,-4.42,6.99,2.87,-0.23,0.36,0.15,642.0,602.0,580.0,600.0,576.0,9,3
1290,-5.63,6.9,2.49,0.64,-0.59,-0.12,643.0,596.0,570.0,602.0,576.0,9,3
1291,-4.54,7.06,2.94,0.45,-0.02,0.09,642.0,597.0,575.0,606.0,577.0,9,3
1292,-3.73,7.69,2.92,0.16,-0.38,0.18,619.0,602.0,583.0,611.0,572.0,9,3
1293,-6.8,7.63,2.47,0.21,-1.29,-0.24,600.0,604.0,584.0,604.0,561.0,9,3
1294,-6.59,6.66,4.35,0.02,-1.24,-0.5,593.0,594.0,567.0,582.0,541.0,9,3
1295,-3.82,7.32,3.83,-0.13,-3.18,-0.92,583.0,582.0,556.0,562.0,516.0,9,3
1296,-4.17,6.49,5.75,0.56,-3.71,-1.26,576.0,581.0,553.0,554.0,503.0,9,3
1297,0.44,7.19,5.06,0.14,-1.24,-0.57,577.0,584.0,556.0,554.0,502.0,9,3
1298,0.58,7.58,6.55,0.92,-0.16,-0.13,599.0,604.0,575.0,561.0,510.0,9,3
1299,-0.61,6.65,4.67,0.12,4.0,0.44,637.0,628.0,631.0,581.0,537.0,9,3
1300,-2.93,6.99,3.89,0.29,2.33,0.5,642.0,636.0,650.0,589.0,554.0,9,3
1301,-6.92,6.8,3.25,-0.35,2.72,0.34,640.0,640.0,657.0,595.0,570.0,9,3
1302,-4.13,6.86,3.49,-1.1,1.84,0.56,639.0,638.0,648.0,599.0,576.0,9,3
1303,-5.8,7.02,3.68,-1.04,0.97,0.21,641.0,628.0,626.0,612.0,580.0,9,3
1304,-6.47,6.64,2.89,-0.72,0.91,-0.07,645.0,609.0,596.0,613.0,578.0,9,3
1305,-6.01,6.69,2.77,-0.04,0.43,-0.01,647.0,596.0,580.0,605.0,575.0,9,3
1306,-4.5,7.51,1.77,0.29,0.09,0.07,648.0,602.0,576.0,606.0,575.0,9,3
1307,-6.59,7.14,2.76,0.61,-0.99,0.11,646.0,604.0,578.0,608.0,571.0,9,3
1308,-5.43,6.82,2.79,0.35,-0.61,0.17,628.0,607.0,583.0,604.0,564.0,9,3
1309,-3.01,7.19,1.87,-0.07,-2.67,-0.43,611.0,598.0,566.0,585.0,547.0,9,3
1310,-5.26,6.47,3.96,-0.42,-3.4,-0.78,581.0,580.0,550.0,564.0,524.0,9,3
1311,-3.74,6.31,5.75,-0.04,-2.24,-0.64,578.0,575.0,546.0,557.0,517.0,9,3
1312,-0.94,7.32,5.0,0.54,-2.64,-0.8,588.0,582.0,552.0,559.0,518.0,9,3
1313,-1.04,7.03,5.49,0.62,-1.01,-0.55,599.0,590.0,561.0,566.0,526.0,9,3
1314,0.86,8.16,5.88,0.29,1.79,0.44,619.0,611.0,588.0,578.0,539.0,9,3
1315,-5.4,6.63,3.71,-0.28,5.22,0.27,642.0,631.0,635.0,589.0,555.0,9,3
1316,-4.35,6.8,2.59,-0.67,2.6,0.53,644.0,638.0,652.0,595.0,571.0,9,3
1317,-5.54,7.43,3.2,-0.9,1.72,0.74,643.0,638.0,647.0,598.0,577.0,9,3
1318,-6.24,7.12,3.61,-1.46,1.84,0.71,643.0,630.0,625.0,609.0,580.0,9,3
1319,-5.99,7.67,1.13,-0.57,0.99,0.14,647.0,613.0,592.0,613.0,580.0,9,3
1320,-5.23,6.85,2.14,0.12,-0.09,-0.05,648.0,607.0,577.0,609.0,580.0,9,3
1321,-5.54,7.06,1.98,0.39,-0.05,0.33,648.0,609.0,577.0,613.0,579.0,9,3
1322,-5.22,6.46,2.28,0.73,-0.32,0.08,649.0,610.0,581.0,614.0,577.0,9,3
1323,-4.06,8.05,2.1,0.14,-0.9,-0.1,645.0,610.0,584.0,608.0,567.0,9,3
1324,-5.75,7.1,2.65,-0.39,-1.36,-0.43,624.0,605.0,569.0,586.0,542.0,9,3
1325,-5.32,6.45,4.01,-1.2,-1.11,-0.38,605.0,583.0,541.0,558.0,511.0,9,3
1326,-5.17,7.1,4.34,0.12,-2.47,-1.15,594.0,572.0,531.0,547.0,503.0,9,3
1327,-2.02,6.88,5.26,0.51,-2.34,-0.89,594.0,576.0,534.0,548.0,502.0,9,3
1328,-2.87,6.53,6.42,0.34,-0.32,-0.03,607.0,593.0,549.0,557.0,511.0,9,3
1329,-3.56,7.07,5.33,1.47,1.67,0.02,637.0,615.0,597.0,576.0,537.0,9,3
1330,-4.28,7.52,2.08,1.1,2.31,0.84,646.0,636.0,653.0,606.0,572.0,9,3
1331,-4.86,7.44,1.84,-0.05,2.18,0.55,644.0,641.0,664.0,621.0,582.0,9,3
1332,-6.38,7.49,3.52,-1.05,2.38,0.9,638.0,640.0,660.0,626.0,585.0,9,3
1333,-5.44,7.44,1.48,-1.29,1.91,0.59,640.0,634.0,635.0,634.0,587.0,9,3
1334,-6.01,7.97,1.47,-0.82,0.6,0.16,644.0,623.0,612.0,632.0,585.0,9,3
1335,-5.7,7.21,1.96,-0.28,-0.44,-0.07,646.0,606.0,586.0,614.0,581.0,9,3
1336,-5.54,6.8,2.53,0.06,-0.24,-0.06,648.0,606.0,571.0,603.0,579.0,9,3
1337,-4.56,7.14,1.93,0.43,-0.64,-0.13,648.0,607.0,566.0,601.0,577.0,9,3
1338,-2.31,7.59,1.71,0.46,-1.71,-0.11,648.0,607.0,568.0,598.0,571.0,9,3
1339,-5.55,7.61,3.21,0.04,-1.54,-0.09,646.0,595.0,568.0,588.0,560.0,9,3
1340,-3.35,7.09,4.6,-0.4,-0.18,-0.22,634.0,554.0,565.0,576.0,541.0,9,3
1341,-2.69,7.1,3.1,-0.36,-0.91,-0.35,625.0,602.0,561.0,561.0,521.0,9,3
1342,-5.49,6.97,5.33,-0.13,-0.32,-0.25,617.0,602.0,557.0,554.0,511.0,9,3
1343,-4.75,6.75,4.99,0.03,0.31,-0.14,618.0,603.0,560.0,556.0,516.0,9,3
1344,-3.57,7.72,3.96,1.03,0.8,-0.25,631.0,615.0,586.0,574.0,539.0,9,3
1345,-4.78,5.81,2.29,0.81,1.53,0.5,646.0,634.0,648.0,603.0,573.0,9,3
1346,-5.19,7.69,1.82,0.17,1.97,0.48,645.0,638.0,658.0,608.0,578.0,9,3
1347,-4.06,7.38,1.98,-0.83,1.08,0.59,639.0,638.0,652.0,608.0,582.0,9,3
1348,-5.4,7.56,3.4,-1.1,0.49,0.41,642.0,627.0,616.0,610.0,582.0,9,3
1349,-6.23,7.48,1.85,-0.59,0.11,-0.13,646.0,611.0,591.0,608.0,580.0,9,3
1350,-5.59,6.54,3.74,0.01,-0.25,0.08,646.0,602.0,579.0,594.0,572.0,10,3
1351,-4.88,6.63,3.85,-0.05,-0.24,0.52,646.0,610.0,596.0,598.0,574.0,10,3
1352,-5.31,6.41,3.63,0.31,0.65,0.27,646.0,624.0,630.0,605.0,580.0,10,3
1353,-4.86,6.8,3.18,-0.14,0.53,0.42,642.0,635.0,650.0,610.0,583.0,10,3
1354,-3.65,7.05,3.4,-0.2,0.08,0.31,639.0,636.0,658.0,612.0,585.0,10,3
1355,-4.34,8.12,3.02,-0.59,0.52,0.55,636.0,638.0,660.0,613.0,585.0,10,3
1356,-4.27,6.8,3.49,-2.56,1.55,1.1,636.0,637.0,650.0,611.0,584.0,10,3
1357,-5.62,6.23,4.91,-1.36,0.42,0.57,639.0,628.0,618.0,608.0,584.0,10,3
1358,-5.0,5.03,5.89,-0.81,0.22,0.37,643.0,616.0,592.0,607.0,584.0,10,3
1359,-5.23,5.33,4.64,-0.44,0.44,0.47,643.0,614.0,574.0,607.0,584.0,10,3
1360,-5.73,6.7,3.79,0.51,-0.62,-0.06,642.0,610.0,570.0,604.0,584.0,10,3
1361,-5.7,6.85,3.85,0.9,-1.55,-0.46,640.0,608.0,563.0,599.0,583.0,10,3
1362,-1.89,6.39,3.76,0.6,-3.48,-0.86,627.0,0.0,553.0,585.0,577.0,10,3
1363,-3.25,7.1,3.57,0.18,-4.21,-1.52,593.0,594.0,539.0,571.0,563.0,10,3
1364,-2.49,6.73,5.89,0.07,-3.33,-1.53,582.0,586.0,534.0,567.0,550.0,10,3
1365,1.92,7.81,4.91,0.81,-4.92,-2.32,571.0,577.0,533.0,561.0,540.0,10,3
1366,1.48,7.05,6.38,0.14,-1.08,-0.68,574.0,581.0,539.0,563.0,541.0,10,3
1367,3.27,7.18,6.55,0.95,1.06,-0.09,590.0,599.0,557.0,572.0,551.0,10,3
1368,-0.05,6.55,5.1,0.2,3.5,0.32,622.0,619.0,603.0,582.0,563.0,10,3
1369,-1.48,6.82,2.62,-0.76,4.16,0.42,640.0,632.0,632.0,585.0,571.0,10,3
1370,-4.6,6.9,4.52,-1.05,3.02,0.75,638.0,633.0,631.0,591.0,577.0,10,3
1371,-6.38,6.45,4.84,-1.33,3.24,0.87,639.0,625.0,616.0,608.0,582.0,10,3
1372,-4.56,6.71,3.42,-0.95,2.04,0.7,640.0,619.0,598.0,618.0,584.0,10,3
1373,-6.96,6.06,2.88,0.39,0.81,0.23,639.0,613.0,590.0,623.0,584.0,10,3
1374,-5.69,6.56,2.46,0.27,-0.75,0.29,635.0,614.0,583.0,614.0,582.0,10,3
1375,-4.02,7.2,3.28,0.01,-0.89,0.27,624.0,614.0,587.0,609.0,574.0,10,3
1376,-4.12,7.46,3.24,-0.11,-1.74,-0.18,614.0,612.0,583.0,600.0,564.0,10,3
1377,-7.32,6.46,5.38,-0.02,-1.58,-0.57,596.0,603.0,564.0,574.0,547.0,10,3
1378,-4.55,6.51,4.53,-0.67,-2.69,-1.11,573.0,587.0,542.0,552.0,525.0,10,3
1379,-4.81,5.72,5.76,1.01,-5.2,-2.49,563.0,581.0,539.0,548.0,523.0,10,3
1380,1.41,6.64,5.39,-0.03,-3.0,-1.05,564.0,584.0,542.0,549.0,522.0,10,3
1381,2.08,6.92,6.64,0.82,-1.53,-0.62,571.0,595.0,550.0,554.0,527.0,10,3
1382,1.8,7.16,6.07,0.38,2.14,0.11,595.0,611.0,571.0,563.0,535.0,10,3
1383,-1.69,7.91,4.6,0.59,3.52,0.51,637.0,627.0,627.0,580.0,554.0,10,3
1384,-1.43,6.75,2.99,-0.13,3.71,0.45,643.0,638.0,651.0,588.0,566.0,10,3
1385,-6.07,7.16,3.45,-1.53,3.54,0.34,633.0,637.0,647.0,594.0,577.0,10,3
1386,-4.23,7.13,4.57,-1.46,2.2,0.92,639.0,624.0,615.0,608.0,582.0,10,3
1387,-5.24,6.54,3.37,-1.69,1.78,0.46,642.0,618.0,598.0,614.0,583.0,10,3
1388,-5.55,6.86,3.9,-0.59,0.52,0.52,645.0,0.0,586.0,610.0,582.0,10,3
1389,-6.28,6.57,3.49,0.56,-0.65,0.03,645.0,610.0,582.0,611.0,582.0,10,3
1390,-6.28,6.29,3.3,0.42,-1.32,-0.04,644.0,606.0,571.0,609.0,579.0,10,3
1391,-3.07,6.82,4.04,0.32,-1.86,-0.19,631.0,603.0,564.0,601.0,570.0,10,3
1392,-3.72,6.12,3.91,-0.03,-2.03,-0.46,594.0,598.0,551.0,586.0,560.0,10,3
1393,-1.65,5.4,6.29,-0.26,-2.7,-0.71,562.0,580.0,529.0,559.0,538.0,10,3
1394,-3.23,6.09,5.54,0.34,-3.56,-1.67,557.0,573.0,527.0,550.0,531.0,10,3
1395,0.1,7.28,5.71,0.66,-2.49,-0.73,562.0,574.0,529.0,552.0,533.0,10,3
1396,1.0,6.2,6.22,-0.05,0.77,-0.08,567.0,592.0,530.0,553.0,535.0,10,3
1397,1.03,7.46,6.59,0.35,2.66,0.32,587.0,606.0,544.0,564.0,544.0,10,3
1398,-2.02,6.45,4.58,0.97,1.85,0.43,634.0,628.0,606.0,578.0,557.0,10,3
1399,-4.59,7.14,3.53,-0.39,4.05,0.35,641.0,637.0,642.0,587.0,572.0,10,3
1400,-4.47,6.9,3.12,-1.53,3.03,0.54,634.0,636.0,641.0,596.0,581.0,10,3
1401,-3.93,7.07,4.38,-1.34,1.89,0.49,641.0,623.0,605.0,610.0,585.0,10,3
1402,-4.54,6.79,3.45,-1.08,1.14,0.05,643.0,610.0,580.0,611.0,585.0,10,3
1403,-5.89,6.98,3.19,0.29,0.22,0.17,645.0,615.0,576.0,614.0,583.0,10,3
1404,-5.54,6.9,3.0,0.57,0.06,0.57,642.0,616.0,578.0,616.0,581.0,10,3
1405,-5.59,6.93,3.13,0.45,-1.19,0.04,622.0,614.0,580.0,614.0,574.0,10,3
1406,-4.2,7.16,2.99,-0.34,-1.71,-0.06,599.0,611.0,569.0,601.0,559.0,10,3
1407,-5.43,6.25,4.71,-0.27,-2.49,-0.51,585.0,597.0,546.0,569.0,539.0,10,3
1408,-3.11,6.16,5.5,-0.16,-3.1,-1.18,570.0,583.0,534.0,549.0,522.0,10,3
1409,-2.59,6.74,5.43,1.18,-3.86,-1.61,568.0,581.0,532.0,546.0,517.0,10,3
1410,-0.76,7.24,5.16,0.67,-2.62,-1.25,573.0,584.0,533.0,548.0,518.0,10,3
1411,2.23,8.22,5.3,0.22,-1.31,-0.42,577.0,589.0,539.0,553.0,524.0,10,3
1412,2.75,8.35,5.78,0.32,1.61,0.52,596.0,609.0,556.0,564.0,532.0,10,3
1413,0.76,7.0,4.16,0.54,3.19,0.55,635.0,627.0,622.0,582.0,553.0,10,3
1414,-3.53,6.93,3.24,0.34,2.89,0.18,645.0,637.0,652.0,595.0,566.0,10,3
1415,-6.02,7.44,3.74,-0.76,3.06,0.43,640.0,639.0,655.0,596.0,575.0,10,3
1416,-4.15,6.38,2.89,-1.57,2.58,0.39,633.0,636.0,643.0,599.0,581.0,10,3
1417,-3.58,7.33,4.1,-1.88,1.22,0.47,638.0,623.0,605.0,603.0,581.0,10,3
1418,-4.87,5.87,3.88,-0.95,0.36,0.18,644.0,614.0,580.0,600.0,582.0,10,3
1419,-5.86,6.15,4.07,-0.15,0.3,0.06,647.0,613.0,569.0,598.0,579.0,10,3
1420,-4.47,6.26,3.55,0.16,-0.48,0.02,646.0,601.0,565.0,600.0,579.0,10,3
1421,-6.58,6.62,3.85,0.52,-1.31,-0.15,644.0,0.0,563.0,601.0,576.0,10,3
1422,-3.98,6.02,5.08,0.18,-1.08,-0.12,636.0,0.0,554.0,594.0,567.0,10,3
1423,-4.24,6.23,3.75,0.08,-2.62,-0.71,618.0,593.0,540.0,573.0,551.0,10,3
1424,-5.32,7.23,5.24,0.17,-3.71,-1.28,594.0,580.0,528.0,558.0,534.0,10,3
1425,-1.77,6.43,5.89,0.51,-3.28,-1.16,579.0,572.0,525.0,555.0,532.0,10,3
1426,3.0,7.07,6.09,0.48,-0.87,-0.28,585.0,582.0,534.0,560.0,539.0,10,3
1427,0.69,7.9,6.63,0.77,1.42,0.28,609.0,609.0,566.0,575.0,551.0,10,3
1428,-1.15,6.47,5.19,0.45,1.81,0.51,640.0,631.0,641.0,590.0,567.0,10,3
1429,-3.29,6.36,3.27,-0.36,3.52,0.38,641.0,639.0,660.0,600.0,579.0,10,3
1430,-3.78,6.95,4.7,-1.44,2.9,0.46,636.0,638.0,654.0,605.0,581.0,10,3
1431,-3.94,6.61,4.43,-1.31,1.82,0.52,640.0,626.0,617.0,607.0,583.0,10,3
1432,-5.55,6.44,5.09,-1.59,1.58,0.25,644.0,616.0,590.0,606.0,581.0,10,3
1433,-5.49,6.19,3.56,-0.25,0.67,0.23,647.0,613.0,570.0,602.0,578.0,10,3
1434,-5.18,6.19,3.61,0.29,-0.26,0.08,646.0,611.0,569.0,605.0,579.0,10,3
1435,-6.38,6.25,4.28,0.68,-0.75,0.04,645.0,613.0,570.0,607.0,579.0,10,3
1436,-3.49,6.28,4.12,0.56,-0.91,-0.04,640.0,0.0,569.0,607.0,575.0,10,3
1437,-4.81,6.12,3.82,0.16,-2.61,-0.48,635.0,0.0,560.0,595.0,568.0,10,3
1438,-5.95,6.6,5.31,0.1,-2.02,-0.74,626.0,599.0,539.0,573.0,555.0,10,3
1439,-0.44,7.09,6.5,-0.42,-3.01,-1.0,586.0,574.0,513.0,552.0,536.0,10,3
1440,-1.33,6.3,5.41,0.81,-3.0,-1.28,586.0,570.0,515.0,549.0,533.0,10,3
1441,-0.37,6.51,6.26,0.57,-1.95,-0.85,588.0,573.0,519.0,551.0,536.0,10,3
1442,3.25,7.54,6.33,0.34,0.24,-0.03,600.0,584.0,530.0,557.0,541.0,10,3
1443,1.96,8.01,5.22,0.9,2.47,0.38,626.0,612.0,564.0,573.0,554.0,10,3
1444,-3.72,6.62,4.89,0.59,3.17,0.43,645.0,629.0,629.0,586.0,567.0,10,3
1445,-3.02,7.02,2.85,0.17,3.05,0.57,645.0,638.0,656.0,594.0,578.0,10,3
1446,-3.44,7.42,2.38,-0.11,3.52,0.5,638.0,641.0,661.0,605.0,584.0,10,3
1447,-4.16,7.45,4.58,-1.37,1.56,0.76,632.0,639.0,649.0,617.0,585.0,10,3
1448,-6.46,7.57,3.29,-1.02,0.68,0.2,639.0,622.0,597.0,603.0,583.0,10,3
1449,-5.54,6.7,2.74,-0.12,0.43,-0.26,644.0,603.0,566.0,589.0,575.0,10,3
1450,-3.67,7.34,3.09,0.39,-0.61,-0.12,645.0,610.0,555.0,586.0,573.0,10,3
1451,-3.62,7.37,3.39,0.5,-0.82,-0.01,642.0,0.0,565.0,594.0,576.0,10,3
1452,-4.81,7.25,3.48,0.34,-0.79,-0.04,626.0,609.0,575.0,605.0,578.0,10,3
1453,-2.28,6.67,2.64,0.09,-1.2,-0.06,621.0,614.0,580.0,604.0,572.0,10,3
1454,-3.46,7.18,4.37,0.09,-1.67,-0.22,624.0,615.0,579.0,591.0,559.0,10,3
1455,-4.4,6.7,4.32,-0.59,-0.93,-0.36,626.0,608.0,562.0,575.0,546.0,10,3
1456,-4.91,6.77,6.96,-0.96,-0.53,-0.47,622.0,587.0,537.0,557.0,528.0,10,3
1457,-0.89,6.41,5.61,-0.77,-1.58,-0.64,616.0,574.0,527.0,551.0,521.0,10,3
1458,-1.17,6.82,6.11,-0.02,-0.63,-0.37,612.0,573.0,528.0,553.0,522.0,10,3
1459,-1.2,6.49,6.38,0.59,0.56,-0.1,614.0,583.0,537.0,561.0,531.0,10,3
1460,-2.17,7.41,4.92,0.84,1.59,0.15,623.0,603.0,573.0,578.0,551.0,10,3
1461,-3.81,5.83,3.86,0.57,2.05,0.23,641.0,627.0,635.0,593.0,569.0,10,3
1462,-4.21,6.56,3.43,-0.2,2.27,0.67,645.0,637.0,659.0,604.0,580.0,10,3
1463,-5.09,7.54,2.78,-0.67,1.35,0.46,643.0,639.0,662.0,610.0,583.0,10,3
1464,-5.48,7.7,3.15,-0.62,1.37,0.66,639.0,639.0,653.0,609.0,582.0,10,3
1465,-5.25,6.82,3.84,-1.39,0.92,0.62,640.0,626.0,610.0,607.0,582.0,10,3
1466,-4.9,7.19,2.76,-0.95,0.65,0.1,642.0,616.0,572.0,598.0,579.0,10,3
1467,-5.91,6.68,2.89,0.29,-0.36,-0.3,646.0,609.0,554.0,590.0,576.0,10,3
1468,-4.67,6.43,3.02,0.23,-0.33,-0.11,648.0,603.0,545.0,586.0,575.0,10,3
1469,-4.02,7.16,3.61,0.19,-0.2,-0.06,647.0,604.0,550.0,589.0,575.0,10,3
1470,-4.91,7.53,2.7,0.48,-1.28,-0.23,647.0,607.0,558.0,597.0,576.0,10,3
1471,-5.49,7.08,4.2,0.4,-1.47,-0.25,638.0,610.0,563.0,602.0,575.0,10,3
1472,-4.81,6.64,3.76,-0.07,-0.79,-0.37,635.0,611.0,563.0,597.0,567.0,10,3
1473,-5.48,6.82,3.87,0.28,-2.36,-0.79,627.0,602.0,546.0,577.0,551.0,10,3
1474,-4.09,6.52,4.72,-0.16,-3.0,-1.03,614.0,588.0,532.0,563.0,537.0,10,3
1475,-2.24,6.75,6.95,0.75,-2.78,-1.22,589.0,590.0,527.0,555.0,530.0,10,3
1476,3.08,8.33,5.43,0.09,-0.54,-0.28,596.0,604.0,538.0,560.0,534.0,10,3
1477,-0.62,7.7,6.46,0.41,1.75,0.29,621.0,620.0,579.0,572.0,547.0,10,3
1478,-2.72,6.5,2.85,-0.25,3.38,0.65,643.0,632.0,639.0,588.0,562.0,10,3
1479,-4.86,6.32,2.88,-0.18,2.9,0.71,640.0,638.0,658.0,602.0,581.0,10,3
1480,-2.99,6.91,4.88,-1.36,2.09,0.95,638.0,636.0,651.0,606.0,583.0,10,3
1481,-4.15,6.16,4.17,-1.25,1.06,0.7,640.0,631.0,631.0,613.0,585.0,10,3
1482,-5.81,6.77,4.11,-0.94,0.92,0.35,642.0,626.0,614.0,611.0,585.0,10,3
1483,-6.18,6.53,4.05,-0.48,0.41,0.12,645.0,619.0,595.0,607.0,584.0,10,3
1484,-4.82,6.07,3.66,0.0,0.08,-0.04,647.0,612.0,580.0,600.0,583.0,10,3
1485,-4.77,6.1,3.87,0.2,-0.48,-0.07,648.0,616.0,571.0,597.0,582.0,10,3
1486,-5.25,6.51,4.09,0.17,-0.4,-0.1,649.0,612.0,564.0,598.0,582.0,10,3
1487,-4.51,6.56,3.45,0.16,-0.52,-0.18,648.0,597.0,558.0,597.0,581.0,10,3
1488,-3.46,6.65,4.11,0.41,-0.89,-0.2,648.0,607.0,552.0,592.0,579.0,10,3
1489,-4.72,6.39,4.15,0.15,-1.54,-0.36,643.0,603.0,545.0,586.0,572.0,10,3
1490,-5.08,6.47,4.73,0.05,-1.17,-0.5,638.0,597.0,539.0,579.0,566.0,10,3
1491,-2.84,6.78,4.15,-0.03,-2.79,-0.86,617.0,584.0,526.0,568.0,552.0,10,3
1492,-4.36,6.15,5.64,0.72,-2.46,-1.06,606.0,581.0,523.0,563.0,545.0,10,3
1493,-0.07,7.53,5.52,0.53,-2.21,-0.72,602.0,591.0,525.0,562.0,545.0,10,3
1494,1.28,7.5,6.12,0.76,-0.8,-0.33,609.0,601.0,536.0,565.0,550.0,10,3
1495,-0.82,6.96,6.07,0.45,1.56,0.22,626.0,618.0,569.0,571.0,555.0,10,3
1496,-2.13,7.72,3.66,0.75,1.45,0.32,645.0,630.0,638.0,583.0,567.0,10,3
1497,-2.72,6.89,2.93,0.2,1.36,0.08,644.0,638.0,655.0,591.0,575.0,10,3
1498,-5.15,7.13,4.71,-1.21,1.85,0.41,623.0,638.0,656.0,601.0,583.0,10,3
1499,-2.43,7.98,4.71,-1.66,1.65,0.67,628.0,631.0,632.0,611.0,584.0,10,3
1500,-2.93,4.6,7.36,0.06,0.27,0.2,613.0,594.0,562.0,576.0,559.0,11,3
1501,-3.32,4.8,7.06,1.06,0.16,0.48,629.0,608.0,587.0,581.0,562.0,11,3
1502,-2.37,4.7,5.88,1.2,0.28,0.73,639.0,621.0,616.0,587.0,566.0,11,3
1503,-3.45,5.98,4.34,1.18,1.8,0.31,643.0,628.0,638.0,591.0,569.0,11,3
1504,-4.43,6.97,4.21,0.38,2.02,0.42,642.0,630.0,640.0,589.0,568.0,11,3
1505,-3.8,7.46,4.15,-0.89,1.66,0.82,640.0,628.0,624.0,583.0,567.0,11,3
1506,-4.37,6.4,4.35,-0.65,2.12,1.11,640.0,625.0,599.0,588.0,568.0,11,3
1507,-6.51,5.03,5.3,-0.55,2.27,1.32,638.0,613.0,590.0,605.0,575.0,11,3
1508,-6.33,7.09,2.19,-0.2,1.88,0.99,631.0,0.0,586.0,610.0,572.0,11,3
1509,-5.44,7.04,3.15,0.48,0.23,0.47,631.0,620.0,599.0,610.0,570.0,11,3
1510,-4.82,7.05,2.22,-0.11,0.75,0.57,631.0,624.0,609.0,614.0,570.0,11,3
1511,-5.81,8.26,1.64,0.13,0.1,0.35,630.0,623.0,609.0,616.0,566.0,11,3
1512,-6.21,7.44,2.46,0.44,-0.82,0.03,633.0,622.0,602.0,606.0,559.0,11,3
1513,-8.55,8.12,1.36,0.45,-3.81,-0.99,629.0,621.0,589.0,592.0,554.0,11,3
1514,-4.79,8.4,0.86,0.66,-6.33,-1.69,606.0,0.0,581.0,581.0,549.0,11,3
1515,-3.17,8.5,1.63,0.95,-7.54,-2.2,573.0,606.0,572.0,572.0,535.0,11,3
1516,-0.94,7.97,3.01,1.14,-5.5,-1.62,560.0,600.0,573.0,568.0,529.0,11,3
1517,0.77,8.1,2.67,0.76,-5.35,-1.17,554.0,598.0,575.0,566.0,527.0,11,3
1518,3.79,9.0,2.73,0.52,-3.53,-0.8,549.0,598.0,576.0,566.0,525.0,11,3
1519,8.15,10.13,2.36,0.27,0.01,-0.06,557.0,604.0,584.0,570.0,528.0,11,3
1520,3.33,9.09,2.88,-0.1,4.74,0.12,595.0,624.0,622.0,577.0,540.0,11,3
1521,2.32,8.82,3.81,-0.52,2.4,1.12,624.0,636.0,648.0,582.0,552.0,11,3
1522,-1.57,6.98,1.94,-2.39,7.1,0.44,614.0,639.0,648.0,586.0,558.0,11,3
1523,-4.5,7.85,3.05,-1.88,5.69,1.5,605.0,635.0,626.0,598.0,570.0,11,3
1524,-5.58,6.91,2.96,-0.96,3.8,1.0,609.0,623.0,599.0,611.0,577.0,11,3
1525,-4.73,6.56,2.06,-0.6,2.01,0.56,616.0,608.0,584.0,617.0,577.0,11,3
1526,-4.06,7.81,1.88,0.11,1.47,0.61,615.0,623.0,598.0,621.0,579.0,11,3
1527,-5.36,6.69,3.71,-0.73,1.76,0.74,612.0,623.0,602.0,620.0,568.0,11,3
1528,-2.66,6.73,2.72,-0.61,1.57,0.72,627.0,621.0,587.0,606.0,556.0,11,3
1529,-6.58,7.72,2.98,-1.08,0.5,0.27,634.0,614.0,564.0,588.0,546.0,11,3
1530,-6.98,7.29,2.43,0.04,-1.21,-0.48,629.0,606.0,555.0,577.0,541.0,11,3
1531,-8.49,6.94,1.56,0.43,-2.71,-1.1,620.0,600.0,552.0,571.0,538.0,11,3
1532,-5.56,7.43,1.04,1.49,-6.92,-2.42,597.0,595.0,551.0,566.0,533.0,11,3
1533,-4.99,7.05,2.06,2.45,-7.87,-2.83,591.0,592.0,553.0,565.0,531.0,11,3
1534,-0.4,8.2,2.36,1.61,-6.52,-1.64,589.0,590.0,556.0,564.0,531.0,11,3
1535,3.08,9.14,1.76,1.34,-4.68,-1.17,588.0,592.0,560.0,567.0,534.0,11,3
1536,6.37,10.52,2.75,0.05,-0.55,0.0,589.0,597.0,568.0,570.0,535.0,11,3
1537,4.88,10.07,4.79,0.07,2.06,0.56,601.0,616.0,605.0,582.0,548.0,11,3
1538,0.58,7.24,3.44,-0.22,2.18,1.0,618.0,634.0,655.0,603.0,566.0,11,3
1539,-0.55,7.02,2.24,-1.76,5.95,0.62,605.0,638.0,659.0,601.0,571.0,11,3
1540,-3.84,7.05,5.19,-2.2,4.99,1.23,600.0,632.0,627.0,599.0,573.0,11,3
1541,-4.92,7.16,4.37,-1.46,3.62,0.92,614.0,623.0,598.0,602.0,577.0,11,3
1542,-5.39,5.8,3.57,-0.4,1.81,0.45,624.0,620.0,584.0,610.0,578.0,11,3
1543,-4.75,6.95,3.24,-0.04,2.16,0.88,628.0,617.0,582.0,612.0,574.0,11,3
1544,-4.19,6.37,4.57,-0.96,2.16,0.85,628.0,620.0,585.0,611.0,566.0,11,3
1545,-4.11,6.94,2.49,-0.05,2.08,0.92,630.0,619.0,585.0,608.0,560.0,11,3
1546,-6.73,6.74,3.75,-1.1,1.72,0.99,636.0,616.0,575.0,602.0,557.0,11,3
1547,-6.15,7.22,2.88,-0.67,0.9,0.52,625.0,609.0,564.0,593.0,551.0,11,3
1548,-7.36,7.25,1.6,0.45,-1.21,-0.57,622.0,603.0,558.0,585.0,549.0,11,3
1549,-6.82,6.34,0.63,0.97,-5.25,-1.87,607.0,597.0,553.0,577.0,544.0,11,3
1550,-7.47,6.71,1.61,2.31,-7.8,-3.0,585.0,592.0,551.0,569.0,530.0,11,3
1551,-2.77,7.5,1.12,2.68,-8.57,-2.78,577.0,587.0,552.0,566.0,526.0,11,3
1552,2.13,9.95,1.97,1.49,-5.4,-1.16,574.0,590.0,553.0,567.0,528.0,11,3
1553,7.18,11.03,1.99,0.56,-2.26,-0.27,571.0,589.0,555.0,569.0,529.0,11,3
1554,4.13,10.17,2.61,-0.09,1.16,0.24,582.0,597.0,572.0,572.0,534.0,11,3
1555,-1.36,9.14,5.79,0.28,2.17,0.55,603.0,623.0,624.0,588.0,555.0,11,3
1556,3.77,8.06,1.24,-0.35,2.45,0.88,620.0,635.0,657.0,604.0,568.0,11,3
1557,-0.06,7.81,2.87,-1.72,4.33,0.4,605.0,638.0,657.0,606.0,573.0,11,3
1558,-3.24,7.85,4.98,-2.6,5.29,1.22,603.0,629.0,623.0,603.0,575.0,11,3
1559,-5.14,6.87,4.34,-1.81,3.8,0.79,621.0,623.0,594.0,605.0,578.0,11,3
1560,-4.38,6.11,2.94,-0.51,2.51,0.64,627.0,619.0,579.0,611.0,578.0,11,3
1561,-4.91,6.58,3.15,0.13,1.83,0.58,627.0,619.0,582.0,615.0,575.0,11,3
1562,-3.7,5.98,3.8,-0.56,1.42,0.7,620.0,622.0,594.0,618.0,572.0,11,3
1563,-4.77,7.89,3.57,-0.37,1.15,0.39,622.0,625.0,607.0,617.0,566.0,11,3
1564,-3.96,6.47,2.97,0.2,0.86,0.46,627.0,628.0,631.0,618.0,565.0,11,3
1565,-5.31,5.52,3.54,-1.59,0.79,0.46,636.0,627.0,609.0,603.0,556.0,11,3
1566,-6.32,7.02,4.36,-0.9,0.62,0.55,634.0,621.0,583.0,592.0,550.0,11,3
1567,-4.36,5.98,2.42,0.49,-0.73,-0.14,638.0,614.0,574.0,589.0,548.0,11,3
1568,-8.53,5.91,3.79,0.25,-1.39,-0.42,636.0,611.0,572.0,584.0,544.0,11,3
1569,-7.1,7.0,2.12,1.35,-5.84,-2.41,626.0,602.0,569.0,578.0,534.0,11,3
1570,-5.72,6.81,3.56,2.39,-6.46,-3.13,608.0,598.0,568.0,575.0,523.0,11,3
1571,-3.1,6.16,4.02,1.13,-4.84,-1.83,591.0,599.0,572.0,572.0,519.0,11,3
1572,-0.96,8.58,2.76,1.98,-5.84,-1.57,589.0,599.0,577.0,571.0,513.0,11,3
1573,8.31,7.83,2.08,0.57,-2.27,-0.56,583.0,601.0,581.0,573.0,513.0,11,3
1574,4.76,9.73,2.62,-0.5,2.0,0.41,593.0,609.0,597.0,579.0,523.0,11,3
1575,-0.33,8.45,4.31,0.39,2.64,0.73,614.0,627.0,638.0,600.0,556.0,11,3
1576,1.23,7.02,3.51,-0.69,2.53,0.7,617.0,637.0,660.0,612.0,571.0,11,3
1577,-2.34,7.3,4.75,-2.27,4.0,0.63,598.0,636.0,649.0,606.0,573.0,11,3
1578,-2.83,7.14,6.16,-2.22,3.81,1.18,611.0,624.0,612.0,604.0,573.0,11,3
1579,-3.76,5.88,3.7,-1.03,2.54,0.58,626.0,621.0,590.0,605.0,574.0,11,3
1580,-4.49,5.65,4.0,-0.04,1.95,0.65,633.0,618.0,579.0,609.0,574.0,11,3
1581,-5.27,6.33,4.36,0.09,1.34,0.51,635.0,619.0,585.0,611.0,570.0,11,3
1582,-4.86,5.88,4.29,-0.35,1.94,0.59,634.0,622.0,593.0,611.0,562.0,11,3
1583,-7.72,6.92,4.49,-0.28,1.7,0.41,637.0,621.0,591.0,604.0,558.0,11,3
1584,-5.47,5.67,3.81,-0.99,0.39,0.2,636.0,613.0,570.0,592.0,552.0,11,3
1585,-3.88,6.68,3.58,-0.23,-0.48,0.05,635.0,606.0,561.0,582.0,546.0,11,3
1586,-8.32,5.68,2.41,0.89,-3.8,-1.52,627.0,600.0,556.0,574.0,530.0,11,3
1587,-4.41,6.56,4.22,0.97,-4.96,-1.67,610.0,596.0,554.0,569.0,518.0,11,3
1588,-0.48,7.81,4.02,1.39,-5.39,-1.89,592.0,592.0,555.0,567.0,515.0,11,3
1589,-2.53,6.45,3.9,1.7,-5.64,-1.94,585.0,590.0,558.0,566.0,518.0,11,3
1590,0.2,8.76,3.49,0.99,-3.42,-1.13,585.0,591.0,560.0,567.0,520.0,11,3
1591,3.06,9.18,3.32,0.72,-2.02,-0.46,586.0,592.0,563.0,569.0,521.0,11,3
1592,4.42,9.72,3.72,-0.18,1.0,0.4,593.0,601.0,576.0,573.0,527.0,11,3
1593,1.3,9.4,3.95,0.39,2.29,0.64,611.0,620.0,616.0,588.0,552.0,11,3
1594,-2.1,7.03,4.1,-0.37,4.35,1.03,630.0,633.0,651.0,606.0,567.0,11,3
1595,0.67,7.26,3.29,-1.29,3.32,0.67,619.0,636.0,655.0,608.0,571.0,11,3
1596,-3.56,6.79,6.78,-1.78,2.38,0.75,615.0,630.0,622.0,607.0,573.0,11,3
1597,-3.79,6.29,5.61,-1.52,3.26,0.76,633.0,621.0,589.0,604.0,571.0,11,3
1598,-2.23,5.48,3.85,-0.28,2.43,0.59,642.0,616.0,571.0,602.0,569.0,11,3
1599,-4.37,6.26,4.74,0.2,1.69,0.42,640.0,618.0,578.0,605.0,569.0,11,3
1600,-5.19,6.27,3.52,0.11,1.35,0.26,630.0,621.0,591.0,609.0,568.0,11,3
1601,-2.94,7.01,3.71,0.61,1.16,0.68,629.0,624.0,611.0,613.0,564.0,11,3
1602,-6.52,7.63,3.49,-0.72,0.24,0.11,642.0,626.0,630.0,607.0,564.0,11,3
1603,-8.23,7.38,4.69,-0.5,-0.45,0.0,618.0,623.0,602.0,591.0,560.0,11,3
1604,-3.44,5.25,3.74,-0.34,-0.22,-0.04,614.0,618.0,586.0,587.0,557.0,11,3
1605,-6.18,6.5,3.95,0.05,-2.4,-0.61,617.0,614.0,578.0,582.0,557.0,11,3
1606,-4.32,6.34,5.17,0.37,-1.66,-0.5,621.0,0.0,572.0,580.0,556.0,11,3
1607,-2.24,6.45,4.58,0.34,-2.32,-0.56,623.0,0.0,564.0,577.0,552.0,11,3
1608,-3.6,5.94,5.6,0.75,-2.98,-0.78,620.0,0.0,556.0,572.0,547.0,11,3
1609,-0.22,7.17,5.68,0.76,-3.51,-0.82,606.0,590.0,550.0,565.0,537.0,11,3
1610,-1.81,6.24,5.5,1.14,-3.39,-0.97,594.0,588.0,551.0,563.0,533.0,11,3
1611,1.52,7.49,5.46,0.43,-1.36,-0.44,574.0,583.0,550.0,561.0,530.0,11,3
1612,2.08,7.96,5.06,0.42,-0.44,-0.26,577.0,587.0,555.0,565.0,534.0,11,3
1613,1.73,10.41,3.86,1.1,0.97,-0.08,600.0,605.0,580.0,574.0,543.0,11,3
1614,0.67,9.52,5.18,1.03,1.59,0.44,611.0,631.0,649.0,606.0,564.0,11,3
1615,-1.88,7.35,3.77,-0.74,1.94,0.57,622.0,638.0,664.0,624.0,568.0,11,3
1616,-0.9,8.43,3.92,-1.79,4.23,0.27,604.0,637.0,656.0,616.0,568.0,11,3
1617,-3.26,7.26,4.8,-1.91,2.89,0.49,600.0,625.0,608.0,605.0,569.0,11,3
1618,-5.45,7.06,4.66,-1.59,3.92,0.76,616.0,617.0,579.0,600.0,569.0,11,3
1619,-4.65,5.69,3.36,-0.49,2.26,0.6,626.0,615.0,572.0,605.0,569.0,11,3
1620,-5.41,5.88,3.17,-0.08,1.53,0.39,633.0,0.0,569.0,606.0,567.0,11,3
1621,-6.99,6.82,4.53,0.24,0.56,0.16,632.0,612.0,581.0,611.0,567.0,11,3
1622,-4.02,5.88,3.63,-0.67,0.48,0.23,636.0,612.0,586.0,612.0,563.0,11,3
1623,-5.93,7.53,3.99,-0.01,0.26,0.05,634.0,614.0,591.0,608.0,560.0,11,3
1624,-5.91,7.39,2.14,0.7,1.06,0.25,631.0,622.0,619.0,611.0,560.0,11,3
1625,-6.82,5.79,2.69,-0.09,0.63,0.4,641.0,625.0,626.0,609.0,562.0,11,3
1626,-9.26,6.58,4.06,-0.39,-1.25,-0.41,618.0,619.0,597.0,593.0,558.0,11,3
1627,-6.22,7.72,1.13,0.75,-4.17,-1.39,611.0,13.0,581.0,585.0,553.0,11,3
1628,-5.39,6.34,3.61,0.95,-4.95,-1.62,597.0,0.0,579.0,577.0,539.0,11,3
1629,-2.95,6.93,3.79,1.55,-5.96,-1.94,585.0,601.0,579.0,573.0,531.0,11,3
1630,0.57,7.34,4.56,1.1,-4.1,-1.24,575.0,600.0,580.0,570.0,529.0,11,3
1631,3.06,8.37,4.18,1.04,-2.58,-0.77,573.0,598.0,582.0,572.0,534.0,11,3
1632,3.48,8.9,4.19,0.37,0.12,0.04,584.0,603.0,594.0,578.0,539.0,11,3
1633,0.21,8.69,5.34,0.71,1.67,0.27,595.0,622.0,626.0,595.0,557.0,11,3
1634,-0.03,7.88,4.2,-0.64,1.93,0.79,605.0,632.0,652.0,608.0,565.0,11,3
1635,-1.49,7.11,4.32,-0.67,1.95,0.39,596.0,635.0,654.0,609.0,569.0,11,3
1636,-2.3,6.84,5.45,-1.69,3.37,0.67,593.0,628.0,626.0,604.0,569.0,11,3
1637,-2.3,7.07,5.61,-1.49,2.09,0.58,602.0,622.0,600.0,601.0,568.0,11,3
1638,-5.52,5.24,4.82,-0.7,1.91,0.47,614.0,617.0,585.0,602.0,569.0,11,3
1639,-4.43,6.41,4.56,-0.29,1.88,0.4,626.0,614.0,577.0,604.0,568.0,11,3
1640,-3.35,6.32,4.1,-0.08,1.04,0.35,630.0,612.0,573.0,605.0,565.0,11,3
1641,-3.74,6.36,4.94,-0.09,0.7,0.39,629.0,0.0,580.0,606.0,564.0,11,3
1642,-4.46,6.15,3.65,0.22,1.08,0.4,626.0,619.0,595.0,610.0,565.0,11,3
1643,-3.99,7.18,4.97,0.25,0.19,0.29,638.0,623.0,615.0,610.0,566.0,11,3
1644,-6.27,6.36,3.22,-0.68,-0.08,0.01,626.0,621.0,604.0,601.0,566.0,11,3
1645,-4.37,6.71,5.06,-0.65,-0.31,-0.03,605.0,616.0,584.0,591.0,561.0,11,3
1646,-4.0,6.17,4.07,-0.17,-0.25,-0.06,607.0,593.0,576.0,586.0,559.0,11,3
1647,-6.44,5.98,4.76,0.02,-1.11,-0.34,608.0,607.0,567.0,577.0,555.0,11,3
1648,-3.71,6.31,4.98,0.25,-0.97,-0.41,604.0,602.0,560.0,573.0,552.0,11,3
1649,-3.17,6.66,4.68,0.45,-2.02,-0.64,597.0,595.0,554.0,568.0,547.0,11,3
1650,-2.48,8.84,2.42,-0.57,0.01,-0.23,608.0,604.0,582.0,589.0,561.0,12,3
1651,-2.52,8.26,2.39,-0.5,0.16,-0.28,611.0,602.0,584.0,595.0,565.0,12,3
1652,-2.28,8.14,2.26,0.08,0.17,-0.17,618.0,603.0,594.0,605.0,573.0,12,3
1653,-2.66,8.55,2.08,-0.19,1.17,-0.39,626.0,607.0,602.0,612.0,576.0,12,3
1654,-2.89,8.77,1.45,-0.5,1.27,-0.19,631.0,611.0,607.0,616.0,576.0,12,3
1655,-5.02,7.92,1.78,-0.41,1.62,-0.17,637.0,595.0,614.0,621.0,576.0,12,3
1656,-5.34,7.59,2.19,-0.72,1.68,0.34,642.0,545.0,616.0,625.0,574.0,12,3
1657,-2.9,8.15,1.53,-1.48,2.05,0.29,645.0,618.0,616.0,624.0,574.0,12,3
1658,-6.5,8.36,3.05,-0.77,0.61,0.45,646.0,617.0,611.0,625.0,570.0,12,3
1659,-5.77,7.14,1.88,-0.21,1.87,0.66,641.0,630.0,626.0,625.0,570.0,12,3
1660,-4.8,9.28,0.2,-2.01,2.65,0.59,637.0,626.0,623.0,608.0,570.0,12,3
1661,-5.78,6.96,2.67,-1.17,1.49,0.75,635.0,623.0,595.0,599.0,571.0,12,3
1662,-6.0,8.98,3.12,-0.49,1.53,0.55,639.0,621.0,587.0,608.0,572.0,12,3
1663,-2.83,7.83,1.6,-0.62,0.76,0.8,639.0,620.0,591.0,611.0,566.0,12,3
1664,-4.72,7.96,0.46,0.04,-0.12,0.14,636.0,621.0,599.0,613.0,563.0,12,3
1665,-4.89,8.23,2.08,0.1,-0.47,0.16,633.0,621.0,598.0,611.0,556.0,12,3
1666,-8.26,8.34,0.53,0.25,-2.74,-0.55,617.0,617.0,591.0,598.0,547.0,12,3
1667,-6.18,7.29,1.1,0.43,-5.98,-1.92,555.0,607.0,581.0,579.0,536.0,12,3
1668,-1.73,11.53,0.62,1.69,-8.73,-2.79,539.0,600.0,574.0,570.0,536.0,12,3
1669,-3.06,8.09,2.38,1.9,-6.57,-2.33,536.0,594.0,574.0,568.0,536.0,12,3
1670,0.64,19.55,3.38,1.61,-4.68,-0.91,541.0,596.0,581.0,570.0,535.0,12,3
1671,4.83,10.88,2.16,0.17,-0.55,-0.43,546.0,604.0,592.0,575.0,541.0,12,3
1672,2.45,9.89,3.59,-0.11,2.55,0.07,573.0,622.0,623.0,592.0,553.0,12,3
1673,-1.08,8.36,3.73,-0.09,2.0,0.73,597.0,635.0,658.0,619.0,566.0,12,3
1674,0.1,7.76,2.03,-1.96,4.01,0.75,592.0,638.0,663.0,626.0,574.0,12,3
1675,-3.72,7.37,4.32,-2.32,4.6,0.98,602.0,630.0,630.0,611.0,574.0,12,3
1676,-5.24,6.52,4.58,-1.94,3.6,0.98,616.0,625.0,602.0,607.0,574.0,12,3
1677,-5.61,7.1,4.08,-0.98,2.15,0.75,628.0,622.0,588.0,609.0,574.0,12,3
1678,-5.02,6.03,2.68,0.46,2.26,0.72,634.0,540.0,588.0,613.0,571.0,12,3
1679,-4.13,7.17,3.07,-0.19,1.02,0.54,636.0,621.0,590.0,611.0,566.0,12,3
1680,-4.33,7.51,4.57,-0.45,1.76,0.97,633.0,623.0,597.0,610.0,559.0,12,3
1681,-6.43,7.23,3.06,0.13,2.5,0.78,634.0,624.0,598.0,607.0,554.0,12,3
1682,-5.49,6.81,2.9,-0.89,1.02,0.35,632.0,622.0,586.0,599.0,551.0,12,3
1683,-6.28,7.83,3.16,-0.4,0.03,0.17,629.0,617.0,580.0,592.0,548.0,12,3
