Index,AccelX,AccelY,AccelZ,GyroX,GyroY,GyroZ,Finger1,Finger2,Finger3,Finger4,Finger5,Iteration,Gesture
0,3.06,0.1,8.37,-0.03,-0.06,0.01,632.0,630.0,645.0,654.0,601.0,1,4
1,3.22,0.17,8.36,-0.02,-0.08,0.04,632.0,630.0,645.0,653.0,602.0,1,4
2,3.42,0.08,8.28,-0.03,-0.04,-0.01,633.0,630.0,645.0,653.0,602.0,1,4
3,3.09,0.15,8.34,-0.03,-0.02,-0.01,632.0,629.0,645.0,653.0,602.0,1,4
4,3.28,0.11,8.33,-0.03,-0.04,0.02,632.0,630.0,645.0,653.0,602.0,1,4
5,3.27,0.13,8.3,-0.02,0.02,0.01,632.0,629.0,645.0,653.0,601.0,1,4
6,3.12,0.13,8.38,-0.03,0.0,-0.01,632.0,629.0,645.0,653.0,602.0,1,4
7,3.21,0.14,8.36,-0.03,0.05,-0.0,632.0,629.0,644.0,653.0,602.0,1,4
8,3.32,0.09,8.37,-0.03,-0.01,-0.0,633.0,630.0,645.0,653.0,602.0,1,4
9,3.05,0.17,8.39,-0.02,-0.02,0.01,633.0,629.0,645.0,654.0,602.0,1,4
10,3.08,0.16,8.38,-0.02,0.0,0.02,633.0,630.0,645.0,653.0,601.0,1,4
11,3.2,0.14,8.29,-0.03,-0.0,0.01,633.0,630.0,645.0,654.0,601.0,1,4
12,3.1,0.11,8.34,-0.03,-0.02,-0.0,633.0,630.0,645.0,653.0,602.0,1,4
13,3.0,0.17,8.37,-0.03,0.01,0.0,632.0,630.0,645.0,653.0,602.0,1,4
14,3.06,0.07,8.42,-0.03,-0.01,0.01,631.0,629.0,645.0,653.0,602.0,1,4
15,3.14,0.11,8.27,-0.03,0.02,-0.0,632.0,630.0,645.0,653.0,601.0,1,4
16,3.15,0.11,8.43,-0.03,-0.02,-0.01,632.0,629.0,645.0,653.0,603.0,1,4
17,2.92,0.2,8.39,-0.04,0.02,-0.0,633.0,630.0,645.0,653.0,602.0,1,4
18,3.12,0.08,8.35,-0.05,-0.01,-0.02,633.0,629.0,645.0,653.0,602.0,1,4
19,2.91,0.11,8.44,-0.04,0.0,0.0,633.0,630.0,645.0,653.0,602.0,1,4
20,3.14,0.13,8.42,-0.02,-0.03,0.02,633.0,629.0,645.0,653.0,602.0,1,4
21,3.02,0.08,8.44,-0.02,-0.02,0.02,632.0,630.0,645.0,653.0,602.0,1,4
22,3.01,0.11,8.29,-0.01,-0.03,0.03,632.0,630.0,645.0,653.0,602.0,1,4
23,3.27,0.13,8.27,-0.02,-0.03,0.02,632.0,630.0,645.0,653.0,601.0,1,4
24,3.0,0.1,8.45,-0.04,0.01,-0.01,633.0,630.0,645.0,653.0,602.0,1,4
25,3.0,0.16,8.34,-0.02,-0.0,0.02,632.0,630.0,645.0,653.0,602.0,1,4
26,3.22,0.1,8.28,-0.02,-0.01,0.03,632.0,629.0,645.0,653.0,602.0,1,4
27,2.77,0.1,8.39,-0.03,-0.01,0.02,633.0,630.0,645.0,653.0,602.0,1,4
28,3.17,0.08,8.36,-0.03,0.02,0.02,631.0,629.0,645.0,653.0,602.0,1,4
29,3.11,0.08,8.34,-0.05,-0.01,-0.01,633.0,630.0,645.0,652.0,602.0,1,4
30,2.92,0.11,8.38,-0.04,0.04,-0.01,632.0,630.0,645.0,653.0,601.0,1,4
31,3.1,0.08,8.42,-0.02,0.04,0.0,633.0,630.0,645.0,653.0,602.0,1,4
32,3.07,0.13,8.33,-0.03,-0.01,0.01,632.0,630.0,645.0,653.0,602.0,1,4
33,2.84,0.11,8.36,-0.03,0.02,-0.01,633.0,630.0,645.0,653.0,602.0,1,4
34,2.96,0.12,8.48,-0.04,0.01,-0.01,633.0,630.0,645.0,653.0,602.0,1,4
35,2.88,0.14,8.37,-0.02,-0.01,-0.02,631.0,630.0,645.0,653.0,602.0,1,4
36,2.86,0.09,8.4,-0.01,-0.02,-0.01,633.0,630.0,645.0,653.0,602.0,1,4
37,2.98,0.11,8.43,0.01,-0.02,0.03,632.0,630.0,645.0,653.0,602.0,1,4
38,2.95,0.05,8.38,0.02,-0.1,0.04,633.0,631.0,645.0,653.0,602.0,1,4
39,2.81,0.23,8.35,0.0,0.02,0.05,633.0,629.0,645.0,653.0,602.0,1,4
40,3.04,0.16,8.43,0.0,-0.05,0.04,633.0,629.0,646.0,653.0,602.0,1,4
41,2.88,0.23,8.42,0.01,-0.06,0.04,632.0,629.0,645.0,653.0,601.0,1,4
42,3.06,0.23,8.37,0.01,-0.07,0.05,633.0,630.0,645.0,653.0,602.0,1,4
43,3.22,0.18,8.32,0.01,-0.02,0.04,632.0,630.0,645.0,653.0,602.0,1,4
44,3.02,0.26,8.33,-0.01,-0.02,0.01,632.0,630.0,645.0,653.0,603.0,1,4
45,3.0,0.19,8.37,-0.01,0.0,0.0,632.0,630.0,645.0,653.0,602.0,1,4
46,2.86,0.24,8.38,-0.02,-0.04,0.02,631.0,631.0,646.0,654.0,602.0,1,4
47,3.14,0.23,8.27,-0.03,-0.04,0.01,632.0,630.0,645.0,653.0,602.0,1,4
48,2.9,0.26,8.41,-0.03,0.0,0.01,632.0,630.0,645.0,653.0,602.0,1,4
49,3.23,0.21,8.37,-0.03,-0.03,0.01,632.0,630.0,645.0,653.0,602.0,1,4
50,2.94,0.3,8.37,-0.04,-0.06,0.01,632.0,630.0,645.0,653.0,602.0,1,4
51,3.13,0.28,8.32,-0.03,-0.01,0.01,632.0,630.0,645.0,653.0,601.0,1,4
52,3.11,0.25,8.36,-0.04,-0.02,-0.03,633.0,630.0,645.0,653.0,602.0,1,4
53,3.06,0.22,8.4,-0.04,-0.01,-0.01,631.0,630.0,645.0,653.0,601.0,1,4
54,2.95,0.26,8.37,-0.02,0.0,0.03,632.0,630.0,645.0,653.0,602.0,1,4
55,3.05,0.21,8.4,-0.02,-0.02,0.03,632.0,629.0,646.0,653.0,602.0,1,4
56,3.04,0.23,8.36,-0.03,-0.02,0.02,632.0,630.0,645.0,653.0,602.0,1,4
57,2.98,0.21,8.4,-0.03,-0.05,0.02,632.0,630.0,645.0,653.0,602.0,1,4
58,3.21,0.23,8.32,-0.03,-0.0,0.01,631.0,629.0,645.0,654.0,602.0,1,4
59,2.91,0.23,8.37,-0.03,-0.03,-0.01,631.0,630.0,645.0,653.0,602.0,1,4
60,3.17,0.24,8.36,-0.03,-0.01,-0.01,632.0,631.0,645.0,653.0,602.0,1,4
61,2.95,0.22,8.41,-0.04,-0.01,-0.01,631.0,630.0,645.0,653.0,602.0,1,4
62,3.16,0.22,8.39,-0.04,0.0,-0.02,632.0,630.0,645.0,653.0,602.0,1,4
63,3.02,0.25,8.42,-0.03,-0.02,-0.0,631.0,629.0,645.0,653.0,602.0,1,4
64,3.09,0.18,8.39,-0.03,0.01,0.0,632.0,630.0,645.0,652.0,602.0,1,4
65,3.0,0.22,8.38,-0.03,-0.01,0.01,632.0,630.0,646.0,653.0,602.0,1,4
66,3.12,0.25,8.37,-0.02,-0.01,0.02,633.0,630.0,645.0,653.0,602.0,1,4
67,3.04,0.18,8.37,-0.02,-0.0,0.02,632.0,630.0,645.0,653.0,602.0,1,4
68,2.94,0.26,8.39,-0.02,-0.02,0.02,633.0,630.0,645.0,653.0,602.0,1,4
69,3.03,0.22,8.33,-0.03,-0.02,0.02,632.0,630.0,645.0,653.0,602.0,1,4
70,3.05,0.21,8.34,-0.03,-0.01,-0.0,632.0,630.0,645.0,652.0,602.0,1,4
71,3.02,0.23,8.37,-0.02,-0.0,0.01,632.0,629.0,645.0,654.0,602.0,1,4
72,3.0,0.24,8.4,-0.02,0.0,0.01,632.0,630.0,645.0,653.0,602.0,1,4
73,3.07,0.22,8.36,-0.03,-0.0,0.01,633.0,630.0,645.0,653.0,601.0,1,4
74,3.01,0.21,8.39,-0.02,0.0,0.01,632.0,630.0,644.0,653.0,602.0,1,4
75,2.99,0.23,8.33,-0.03,-0.01,0.01,633.0,629.0,645.0,653.0,602.0,1,4
76,3.01,0.19,8.42,-0.03,-0.01,0.0,632.0,630.0,645.0,653.0,602.0,1,4
77,2.92,0.25,8.43,-0.03,-0.01,0.01,633.0,629.0,645.0,653.0,602.0,1,4
78,3.03,0.26,8.35,-0.03,-0.03,0.0,633.0,630.0,645.0,653.0,602.0,1,4
79,3.03,0.25,8.33,-0.03,-0.02,0.0,632.0,630.0,644.0,653.0,602.0,1,4
80,3.02,0.27,8.33,-0.04,-0.05,0.0,632.0,630.0,645.0,653.0,602.0,1,4
81,2.88,0.23,8.36,-0.03,-0.07,0.01,632.0,630.0,645.0,653.0,602.0,1,4
82,3.19,0.22,8.32,-0.03,-0.01,0.01,632.0,630.0,645.0,653.0,601.0,1,4
83,3.05,0.26,8.35,-0.03,-0.04,0.0,632.0,629.0,644.0,653.0,602.0,1,4
84,3.04,0.22,8.37,-0.03,-0.0,-0.0,632.0,629.0,645.0,653.0,602.0,1,4
85,3.09,0.26,8.28,-0.03,-0.01,-0.0,631.0,630.0,645.0,654.0,601.0,1,4
86,3.09,0.24,8.33,-0.03,0.0,-0.01,632.0,629.0,645.0,653.0,603.0,1,4
87,3.08,0.26,8.37,-0.03,-0.01,-0.0,632.0,630.0,645.0,653.0,602.0,1,4
88,3.02,0.22,8.36,-0.03,-0.01,0.01,632.0,630.0,645.0,653.0,602.0,1,4
89,3.08,0.23,8.43,-0.02,-0.03,0.02,633.0,630.0,645.0,653.0,602.0,1,4
90,3.12,0.2,8.35,-0.03,-0.04,0.01,632.0,631.0,645.0,653.0,601.0,1,4
91,2.97,0.29,8.37,-0.03,-0.02,0.01,632.0,630.0,645.0,653.0,602.0,1,4
92,3.11,0.17,8.37,-0.03,-0.02,0.01,632.0,630.0,645.0,653.0,602.0,1,4
93,3.19,0.28,8.34,-0.02,-0.01,0.01,631.0,629.0,645.0,653.0,602.0,1,4
94,3.05,0.2,8.43,-0.03,0.01,-0.0,632.0,630.0,646.0,653.0,601.0,1,4
95,3.06,0.22,8.32,-0.02,0.02,0.01,632.0,631.0,645.0,653.0,601.0,1,4
96,3.1,0.19,8.33,-0.02,-0.01,0.01,632.0,629.0,645.0,653.0,602.0,1,4
97,2.93,0.23,8.4,-0.03,-0.01,-0.01,632.0,629.0,645.0,653.0,602.0,1,4
98,2.99,0.24,8.35,-0.04,-0.0,-0.01,632.0,630.0,646.0,653.0,602.0,1,4
99,3.05,0.23,8.36,-0.03,-0.01,0.01,632.0,629.0,645.0,654.0,602.0,1,4
100,3.0,0.2,8.38,-0.03,-0.04,0.02,633.0,629.0,645.0,653.0,602.0,1,4
101,2.97,0.26,8.38,-0.03,-0.04,0.02,632.0,630.0,645.0,653.0,602.0,1,4
102,3.06,0.26,8.39,-0.02,-0.08,0.04,632.0,630.0,645.0,653.0,602.0,1,4
103,3.1,0.22,8.3,-0.03,-0.08,0.03,632.0,630.0,645.0,653.0,602.0,1,4
104,3.25,0.17,8.34,-0.03,-0.02,0.02,632.0,629.0,645.0,652.0,602.0,1,4
105,3.05,0.19,8.42,-0.02,0.01,0.02,632.0,630.0,645.0,653.0,601.0,1,4
106,3.21,0.2,8.32,-0.03,-0.01,-0.0,632.0,630.0,645.0,653.0,602.0,1,4
107,3.11,0.23,8.38,-0.03,-0.0,-0.01,632.0,630.0,645.0,654.0,602.0,1,4
108,3.08,0.25,8.33,-0.03,-0.01,-0.01,632.0,630.0,645.0,654.0,602.0,1,4
109,3.13,0.22,8.33,-0.03,0.01,-0.01,633.0,630.0,645.0,653.0,602.0,1,4
110,3.11,0.24,8.37,-0.03,0.01,-0.01,632.0,630.0,644.0,653.0,602.0,1,4
111,3.0,0.23,8.42,-0.03,0.01,-0.02,631.0,629.0,645.0,653.0,603.0,1,4
112,2.93,0.2,8.32,-0.03,-0.01,-0.0,633.0,629.0,645.0,654.0,602.0,1,4
113,3.01,0.22,8.37,-0.03,-0.04,0.01,632.0,630.0,645.0,654.0,601.0,1,4
114,2.96,0.18,8.34,-0.03,-0.01,0.01,632.0,630.0,645.0,653.0,602.0,1,4
115,3.13,0.23,8.34,-0.03,-0.02,0.01,632.0,630.0,645.0,653.0,602.0,1,4
116,2.98,0.23,8.36,-0.02,-0.03,0.0,633.0,629.0,645.0,654.0,602.0,1,4
117,3.01,0.22,8.38,-0.03,-0.03,-0.0,633.0,630.0,644.0,653.0,602.0,1,4
118,3.1,0.22,8.37,-0.03,-0.02,-0.0,633.0,630.0,645.0,653.0,602.0,1,4
119,3.0,0.18,8.38,-0.03,-0.0,0.0,633.0,630.0,645.0,653.0,602.0,1,4
120,3.05,0.23,8.36,-0.03,-0.02,0.0,632.0,629.0,644.0,653.0,602.0,1,4
121,3.02,0.25,8.32,-0.03,-0.02,0.01,633.0,629.0,645.0,653.0,602.0,1,4
122,3.07,0.25,8.43,-0.03,-0.01,-0.0,632.0,630.0,645.0,653.0,601.0,1,4
123,3.07,0.2,8.35,-0.04,-0.02,-0.01,633.0,631.0,645.0,653.0,602.0,1,4
124,3.0,0.18,8.37,-0.04,-0.02,0.0,632.0,630.0,645.0,653.0,602.0,1,4
125,3.1,0.18,8.35,-0.02,-0.01,0.01,632.0,629.0,645.0,652.0,602.0,1,4
126,3.03,0.23,8.42,-0.03,-0.03,-0.0,632.0,630.0,645.0,653.0,601.0,1,4
127,3.07,0.24,8.32,-0.03,-0.01,0.01,632.0,630.0,645.0,653.0,602.0,1,4
128,3.11,0.23,8.39,-0.03,-0.06,0.02,632.0,629.0,645.0,653.0,602.0,1,4
129,3.07,0.22,8.32,-0.03,-0.03,0.01,632.0,629.0,645.0,653.0,602.0,1,4
130,3.07,0.21,8.36,-0.03,-0.01,-0.0,632.0,630.0,645.0,653.0,602.0,1,4
131,3.09,0.22,8.37,-0.03,-0.05,0.02,632.0,630.0,645.0,654.0,602.0,1,4
132,3.14,0.24,8.31,-0.02,-0.04,0.03,632.0,630.0,645.0,653.0,602.0,1,4
133,3.12,0.26,8.25,-0.02,-0.02,0.02,633.0,629.0,644.0,653.0,602.0,1,4
134,3.22,0.19,8.29,-0.03,-0.01,0.0,632.0,630.0,645.0,653.0,603.0,1,4
135,3.11,0.23,8.37,-0.03,-0.01,-0.0,632.0,630.0,645.0,653.0,601.0,1,4
136,3.13,0.24,8.38,-0.03,-0.01,0.0,632.0,629.0,645.0,654.0,602.0,1,4
137,3.11,0.21,8.34,-0.03,0.0,-0.01,632.0,630.0,644.0,653.0,602.0,1,4
138,3.14,0.18,8.35,-0.03,-0.0,-0.01,633.0,629.0,645.0,653.0,602.0,1,4
139,3.06,0.23,8.38,-0.03,-0.01,-0.0,632.0,630.0,645.0,653.0,602.0,1,4
140,3.06,0.2,8.35,-0.03,-0.0,0.0,632.0,630.0,645.0,653.0,602.0,1,4
141,3.08,0.23,8.35,-0.03,-0.02,0.01,632.0,629.0,645.0,653.0,603.0,1,4
142,3.1,0.22,8.32,-0.03,-0.03,0.01,632.0,630.0,645.0,653.0,602.0,1,4
143,3.13,0.18,8.35,-0.03,-0.01,0.01,633.0,629.0,645.0,653.0,602.0,1,4
144,3.14,0.16,8.34,-0.03,-0.02,0.01,633.0,630.0,645.0,653.0,602.0,1,4
145,3.14,0.22,8.35,-0.03,-0.01,0.0,632.0,630.0,645.0,653.0,602.0,1,4
146,3.1,0.19,8.36,-0.03,-0.01,0.01,633.0,630.0,645.0,653.0,602.0,1,4
147,3.12,0.23,8.43,-0.03,-0.01,0.0,632.0,631.0,645.0,653.0,602.0,1,4
148,3.09,0.23,8.44,-0.03,-0.01,0.01,632.0,630.0,644.0,653.0,602.0,1,4
149,3.08,0.19,8.34,-0.02,-0.03,0.01,632.0,630.0,645.0,653.0,602.0,1,4
150,3.05,0.25,8.37,-0.02,0.0,0.02,633.0,630.0,645.0,653.0,602.0,2,4
151,3.22,0.17,8.43,-0.02,-0.02,0.02,634.0,630.0,645.0,653.0,602.0,2,4
152,3.06,0.26,8.37,-0.03,0.01,0.0,632.0,630.0,645.0,653.0,602.0,2,4
153,3.19,0.18,8.35,-0.03,-0.02,0.01,633.0,629.0,645.0,653.0,602.0,2,4
154,3.11,0.24,8.38,-0.03,-0.03,0.01,632.0,629.0,645.0,654.0,602.0,2,4
155,3.12,0.18,8.36,-0.02,-0.0,0.01,632.0,630.0,645.0,653.0,602.0,2,4
156,3.08,0.23,8.32,-0.03,-0.03,0.02,632.0,630.0,645.0,653.0,602.0,2,4
157,3.13,0.17,8.41,-0.03,0.02,-0.0,633.0,631.0,645.0,654.0,602.0,2,4
158,2.91,0.25,8.33,-0.03,-0.03,0.01,632.0,630.0,644.0,653.0,602.0,2,4
159,3.08,0.21,8.36,-0.02,-0.02,0.02,632.0,629.0,645.0,653.0,602.0,2,4
160,3.11,0.21,8.32,-0.03,-0.03,0.0,632.0,630.0,645.0,653.0,602.0,2,4
161,3.05,0.2,8.34,-0.03,-0.03,0.01,632.0,629.0,645.0,653.0,602.0,2,4
162,3.24,0.22,8.34,-0.03,-0.01,0.01,632.0,629.0,645.0,653.0,602.0,2,4
163,3.09,0.19,8.34,-0.02,0.0,0.01,632.0,630.0,645.0,653.0,602.0,2,4
164,3.19,0.24,8.29,-0.02,-0.0,0.01,632.0,630.0,645.0,653.0,602.0,2,4
165,3.01,0.23,8.35,-0.03,-0.02,0.01,632.0,629.0,644.0,654.0,602.0,2,4
166,3.1,0.27,8.35,-0.03,-0.01,0.0,633.0,629.0,645.0,653.0,602.0,2,4
167,3.15,0.21,8.33,-0.03,-0.02,-0.0,632.0,630.0,645.0,653.0,603.0,2,4
168,2.98,0.22,8.4,-0.03,0.0,-0.0,632.0,630.0,645.0,653.0,602.0,2,4
169,3.11,0.21,8.36,-0.03,-0.03,0.01,631.0,630.0,645.0,654.0,602.0,2,4
170,3.08,0.2,8.35,-0.03,-0.03,0.01,632.0,629.0,646.0,653.0,602.0,2,4
171,3.16,0.19,8.32,-0.03,-0.03,0.01,632.0,631.0,645.0,654.0,602.0,2,4
172,3.17,0.2,8.37,-0.03,-0.01,0.0,632.0,630.0,645.0,653.0,602.0,2,4
173,3.07,0.2,8.35,-0.03,-0.01,-0.0,632.0,630.0,645.0,654.0,602.0,2,4
174,3.13,0.2,8.35,-0.03,-0.01,-0.0,632.0,630.0,645.0,653.0,603.0,2,4
175,3.11,0.18,8.34,-0.03,-0.01,0.0,632.0,630.0,645.0,653.0,602.0,2,4
176,3.14,0.2,8.36,-0.03,-0.02,-0.0,632.0,629.0,645.0,654.0,602.0,2,4
177,3.05,0.19,8.37,-0.03,-0.01,0.01,633.0,630.0,645.0,653.0,602.0,2,4
178,3.14,0.25,8.38,-0.03,-0.02,0.01,632.0,630.0,646.0,653.0,602.0,2,4
179,3.08,0.27,8.37,-0.03,-0.02,0.01,632.0,630.0,645.0,653.0,602.0,2,4
180,3.01,0.23,8.37,-0.02,-0.02,0.01,632.0,630.0,645.0,653.0,602.0,2,4
181,3.19,0.21,8.39,-0.02,-0.03,0.01,632.0,630.0,645.0,654.0,602.0,2,4
182,2.98,0.18,8.15,-0.03,-0.01,0.01,632.0,630.0,646.0,653.0,601.0,2,4
183,3.04,0.19,8.36,-0.03,-0.01,0.01,632.0,629.0,644.0,653.0,602.0,2,4
184,3.15,0.19,8.31,-0.03,-0.02,0.0,632.0,629.0,644.0,653.0,602.0,2,4
185,3.08,0.25,8.3,-0.03,-0.01,0.0,632.0,630.0,645.0,653.0,602.0,2,4
186,3.06,0.17,8.31,-0.03,-0.02,0.01,632.0,630.0,645.0,654.0,602.0,2,4
187,3.14,0.22,8.31,-0.03,-0.01,0.01,632.0,630.0,645.0,653.0,602.0,2,4
188,3.14,0.24,8.37,-0.03,-0.02,0.01,632.0,630.0,645.0,653.0,602.0,2,4
189,3.13,0.24,8.33,-0.03,-0.02,0.01,632.0,629.0,645.0,653.0,602.0,2,4
190,3.14,0.2,8.38,-0.03,-0.01,0.01,633.0,629.0,645.0,653.0,602.0,2,4
191,3.03,0.19,8.18,-0.03,-0.02,0.01,632.0,629.0,645.0,653.0,603.0,2,4
192,3.11,0.2,8.35,-0.03,-0.02,0.01,632.0,630.0,645.0,653.0,602.0,2,4
193,3.04,0.21,8.32,-0.03,-0.02,0.01,632.0,630.0,645.0,654.0,602.0,2,4
194,3.09,0.22,8.29,-0.03,-0.02,0.01,633.0,629.0,645.0,653.0,602.0,2,4
195,3.09,0.19,8.35,-0.03,-0.02,0.0,632.0,630.0,645.0,653.0,602.0,2,4
196,3.08,0.22,8.38,-0.03,-0.02,0.0,632.0,631.0,644.0,654.0,602.0,2,4
197,3.08,0.22,8.3,-0.03,-0.02,0.0,632.0,630.0,645.0,653.0,602.0,2,4
198,3.09,0.23,8.35,-0.03,-0.02,0.0,632.0,631.0,645.0,653.0,602.0,2,4
199,3.14,0.21,8.34,-0.03,-0.02,0.0,632.0,630.0,645.0,654.0,602.0,2,4
200,3.11,0.19,8.33,-0.03,-0.02,0.0,632.0,630.0,646.0,653.0,602.0,2,4
201,3.05,0.21,8.31,-0.03,-0.01,0.01,632.0,630.0,645.0,653.0,602.0,2,4
202,3.03,0.21,8.33,-0.03,-0.01,0.0,632.0,630.0,645.0,654.0,602.0,2,4
203,3.12,0.2,8.34,-0.03,-0.01,0.0,632.0,630.0,645.0,653.0,602.0,2,4
204,3.11,0.23,8.31,-0.03,-0.02,0.0,632.0,630.0,645.0,653.0,602.0,2,4
205,3.11,0.22,8.34,-0.03,-0.03,0.01,632.0,630.0,645.0,653.0,602.0,2,4
206,3.09,0.22,8.38,-0.03,-0.02,0.01,632.0,630.0,645.0,653.0,602.0,2,4
207,3.2,0.21,8.35,-0.03,-0.01,0.01,632.0,630.0,645.0,653.0,602.0,2,4
208,3.11,0.23,8.38,-0.03,-0.02,0.01,633.0,630.0,645.0,653.0,602.0,2,4
209,3.0,0.19,8.18,-0.03,-0.01,0.01,632.0,630.0,645.0,653.0,602.0,2,4
210,3.2,0.24,8.51,-0.03,-0.0,0.01,632.0,630.0,645.0,652.0,602.0,2,4
211,3.13,0.2,8.34,-0.03,-0.01,0.01,632.0,630.0,645.0,653.0,602.0,2,4
212,3.19,0.24,8.37,-0.03,-0.02,0.0,632.0,630.0,645.0,653.0,602.0,2,4
213,3.11,0.22,8.36,-0.03,-0.02,0.01,633.0,630.0,645.0,653.0,602.0,2,4
214,3.11,0.19,8.3,-0.03,-0.02,0.01,632.0,631.0,645.0,652.0,602.0,2,4
215,3.12,0.14,8.34,-0.03,-0.02,0.0,634.0,630.0,645.0,653.0,602.0,2,4
216,3.06,0.23,8.35,-0.03,-0.02,0.01,632.0,630.0,645.0,653.0,602.0,2,4
217,3.13,0.23,8.35,-0.03,-0.01,0.01,631.0,629.0,645.0,653.0,602.0,2,4
218,3.12,0.2,8.23,-0.03,-0.03,0.0,632.0,630.0,644.0,654.0,602.0,2,4
219,3.07,0.2,8.29,-0.03,-0.02,0.01,633.0,630.0,645.0,653.0,602.0,2,4
220,3.02,0.22,8.34,-0.03,-0.01,0.01,632.0,630.0,645.0,654.0,602.0,2,4
221,3.2,0.23,8.41,-0.03,-0.01,0.01,632.0,630.0,645.0,653.0,602.0,2,4
222,3.21,0.24,8.29,-0.03,-0.02,0.01,632.0,630.0,645.0,653.0,602.0,2,4
223,3.14,0.19,8.28,-0.03,-0.02,0.01,632.0,630.0,645.0,653.0,602.0,2,4
224,3.13,0.22,8.33,-0.03,-0.01,0.01,632.0,630.0,645.0,654.0,602.0,2,4
225,3.16,0.22,8.38,-0.03,-0.01,0.0,632.0,630.0,644.0,653.0,602.0,2,4
226,3.11,0.22,8.24,-0.03,-0.01,0.0,632.0,630.0,645.0,653.0,602.0,2,4
227,3.26,0.23,8.5,-0.03,-0.03,-0.0,633.0,630.0,644.0,653.0,602.0,2,4
228,3.06,0.24,8.31,-0.02,-0.02,0.01,633.0,630.0,644.0,654.0,602.0,2,4
229,3.11,0.21,8.26,-0.03,-0.01,0.01,631.0,631.0,645.0,653.0,602.0,2,4
230,3.1,0.17,8.37,-0.03,-0.01,0.0,632.0,630.0,645.0,653.0,602.0,2,4
231,3.11,0.15,8.38,-0.03,-0.02,0.0,632.0,630.0,645.0,653.0,602.0,2,4
232,3.09,0.24,8.36,-0.03,-0.01,0.0,632.0,630.0,645.0,653.0,603.0,2,4
233,3.14,0.17,8.33,-0.03,-0.02,0.0,632.0,629.0,644.0,653.0,602.0,2,4
234,3.1,0.2,8.31,-0.03,-0.02,0.01,633.0,630.0,645.0,654.0,602.0,2,4
235,3.17,0.24,8.35,-0.03,-0.02,0.0,632.0,630.0,645.0,653.0,602.0,2,4
236,3.01,0.22,8.33,-0.03,-0.01,0.01,632.0,630.0,645.0,653.0,602.0,2,4
237,3.16,0.26,8.47,-0.03,-0.02,0.01,632.0,630.0,645.0,654.0,602.0,2,4
238,3.14,0.16,8.36,-0.03,-0.02,0.0,632.0,630.0,646.0,653.0,602.0,2,4
239,3.11,0.22,8.4,-0.03,-0.02,0.0,632.0,630.0,645.0,653.0,602.0,2,4
240,3.12,0.17,8.34,-0.03,-0.02,0.01,634.0,630.0,645.0,654.0,602.0,2,4
241,3.12,0.23,8.33,-0.03,-0.01,0.0,632.0,630.0,645.0,653.0,602.0,2,4
242,3.11,0.22,8.37,-0.03,-0.02,0.0,632.0,629.0,645.0,654.0,602.0,2,4
243,3.11,0.21,8.34,-0.03,-0.01,0.01,633.0,630.0,645.0,654.0,602.0,2,4
244,3.07,0.23,8.29,-0.03,-0.01,0.0,632.0,630.0,645.0,653.0,602.0,2,4
245,3.2,0.2,8.47,-0.03,-0.02,0.01,633.0,629.0,645.0,653.0,602.0,2,4
246,3.07,0.21,8.32,-0.03,-0.02,0.01,633.0,630.0,645.0,653.0,602.0,2,4
247,3.11,0.22,8.42,-0.03,-0.02,0.01,632.0,630.0,645.0,653.0,602.0,2,4
248,3.14,0.19,8.32,-0.03,-0.01,0.01,633.0,630.0,645.0,654.0,602.0,2,4
249,3.12,0.21,8.34,-0.03,-0.02,0.0,632.0,630.0,645.0,653.0,602.0,2,4
250,3.11,0.18,8.4,-0.03,-0.01,0.01,632.0,631.0,645.0,653.0,602.0,2,4
251,3.1,0.22,8.35,-0.03,-0.01,0.01,632.0,630.0,645.0,653.0,602.0,2,4
252,3.08,0.17,8.37,-0.03,-0.02,0.01,632.0,629.0,645.0,653.0,601.0,2,4
253,3.16,0.21,8.32,-0.03,-0.02,0.01,632.0,630.0,644.0,653.0,602.0,2,4
254,3.09,0.2,8.35,-0.03,-0.01,0.01,632.0,629.0,645.0,653.0,602.0,2,4
255,3.14,0.18,8.38,-0.03,-0.01,0.01,633.0,629.0,645.0,653.0,602.0,2,4
256,3.13,0.19,8.34,-0.03,-0.01,0.01,632.0,631.0,645.0,653.0,602.0,2,4
257,3.11,0.21,8.34,-0.03,-0.02,0.01,632.0,630.0,645.0,653.0,602.0,2,4
258,3.09,0.22,8.33,-0.03,-0.02,0.01,632.0,630.0,644.0,653.0,602.0,2,4
259,3.11,0.21,8.33,-0.03,-0.01,0.01,631.0,630.0,645.0,653.0,602.0,2,4
260,3.15,0.23,8.33,-0.03,-0.02,0.01,633.0,630.0,645.0,653.0,602.0,2,4
261,3.11,0.23,8.37,-0.03,-0.01,0.01,632.0,629.0,645.0,653.0,602.0,2,4
262,3.12,0.17,8.37,-0.03,-0.02,0.01,632.0,630.0,645.0,653.0,602.0,2,4
263,3.08,0.24,8.36,-0.03,-0.02,0.01,632.0,629.0,645.0,653.0,603.0,2,4
264,3.14,0.22,8.33,-0.03,-0.02,0.01,632.0,630.0,644.0,653.0,602.0,2,4
265,3.06,0.21,8.32,-0.03,-0.02,0.0,632.0,630.0,645.0,653.0,602.0,2,4
266,3.15,0.21,8.31,-0.03,-0.02,0.01,632.0,630.0,645.0,653.0,602.0,2,4
267,3.1,0.22,8.39,-0.03,-0.01,0.0,632.0,630.0,645.0,653.0,602.0,2,4
268,3.15,0.2,8.32,-0.03,-0.01,0.0,632.0,630.0,645.0,653.0,602.0,2,4
269,3.1,0.26,8.31,-0.03,-0.01,0.01,632.0,630.0,645.0,653.0,602.0,2,4
270,3.1,0.21,8.31,-0.03,-0.01,0.0,632.0,630.0,646.0,652.0,602.0,2,4
271,3.11,0.26,8.34,-0.03,-0.02,0.0,632.0,630.0,645.0,653.0,602.0,2,4
272,3.15,0.21,8.36,-0.03,-0.02,0.0,632.0,630.0,645.0,653.0,602.0,2,4
273,3.16,0.22,8.34,-0.03,-0.01,0.01,632.0,630.0,645.0,653.0,602.0,2,4
274,3.09,0.2,8.36,-0.03,-0.01,0.01,632.0,630.0,645.0,653.0,602.0,2,4
275,3.14,0.21,8.39,-0.03,-0.01,0.01,633.0,630.0,645.0,653.0,602.0,2,4
276,3.06,0.22,8.35,-0.03,-0.02,0.01,632.0,630.0,644.0,653.0,602.0,2,4
277,3.12,0.2,8.38,-0.03,-0.01,0.01,632.0,630.0,645.0,653.0,602.0,2,4
278,3.1,0.18,8.37,-0.03,-0.02,0.0,632.0,630.0,645.0,653.0,602.0,2,4
279,3.15,0.22,8.34,-0.03,-0.02,0.01,633.0,629.0,645.0,653.0,602.0,2,4
280,3.1,0.23,8.29,-0.03,-0.02,0.0,632.0,629.0,645.0,654.0,602.0,2,4
281,3.13,0.22,8.35,-0.03,-0.01,0.01,632.0,629.0,645.0,654.0,602.0,2,4
282,3.11,0.25,8.35,-0.03,-0.02,0.0,631.0,630.0,645.0,653.0,602.0,2,4
283,3.09,0.24,8.35,-0.03,-0.01,0.0,632.0,630.0,645.0,653.0,602.0,2,4
284,3.13,0.18,8.31,-0.03,-0.02,0.01,631.0,630.0,645.0,653.0,602.0,2,4
285,3.14,0.23,8.33,-0.03,-0.02,0.0,631.0,630.0,645.0,653.0,602.0,2,4
286,3.1,0.19,8.37,-0.03,-0.01,0.01,632.0,630.0,645.0,653.0,602.0,2,4
287,3.11,0.2,8.33,-0.03,-0.02,0.01,633.0,630.0,645.0,653.0,602.0,2,4
288,3.09,0.23,8.34,-0.03,-0.02,0.01,631.0,630.0,645.0,653.0,602.0,2,4
289,3.06,0.25,8.38,-0.03,-0.02,0.01,633.0,631.0,645.0,653.0,602.0,2,4
290,3.12,0.23,8.31,-0.03,-0.01,0.01,631.0,630.0,645.0,653.0,602.0,2,4
291,3.13,0.21,8.4,-0.03,-0.01,0.0,632.0,630.0,645.0,654.0,602.0,2,4
292,3.13,0.2,8.41,-0.03,-0.01,0.01,632.0,629.0,645.0,654.0,602.0,2,4
293,3.1,0.21,8.37,-0.03,-0.02,0.01,632.0,629.0,645.0,653.0,602.0,2,4
294,3.13,0.24,8.41,-0.03,-0.02,0.0,633.0,629.0,645.0,654.0,602.0,2,4
295,3.11,0.17,8.32,-0.03,-0.02,0.01,633.0,630.0,645.0,653.0,602.0,2,4
296,3.11,0.28,8.33,-0.03,-0.01,0.01,632.0,630.0,645.0,653.0,602.0,2,4
297,3.16,0.18,8.35,-0.03,-0.02,0.01,632.0,630.0,645.0,654.0,602.0,2,4
298,3.05,0.2,8.36,-0.03,-0.01,0.01,632.0,630.0,646.0,653.0,602.0,2,4
299,3.14,0.2,8.37,-0.03,-0.01,0.01,632.0,630.0,645.0,653.0,602.0,2,4
300,3.13,0.27,8.38,-0.03,-0.04,0.01,632.0,631.0,646.0,654.0,603.0,3,4
301,3.11,0.2,8.36,-0.03,-0.01,0.01,632.0,630.0,646.0,654.0,603.0,3,4
302,3.22,0.27,8.38,-0.03,-0.02,0.01,632.0,631.0,646.0,654.0,603.0,3,4
303,3.11,0.22,8.43,-0.03,-0.0,0.0,633.0,630.0,646.0,654.0,603.0,3,4
304,3.15,0.27,8.41,-0.02,-0.04,0.02,632.0,631.0,646.0,653.0,603.0,3,4
305,3.13,0.23,8.29,-0.03,-0.01,0.01,634.0,630.0,646.0,653.0,603.0,3,4
306,3.13,0.29,8.41,-0.03,-0.03,0.02,633.0,630.0,646.0,654.0,603.0,3,4
307,3.14,0.27,8.39,-0.03,0.0,0.0,632.0,631.0,646.0,653.0,603.0,3,4
308,3.28,0.28,8.35,-0.03,-0.05,-0.01,632.0,631.0,646.0,654.0,604.0,3,4
309,3.05,0.22,8.45,-0.03,-0.02,0.0,633.0,631.0,646.0,654.0,603.0,3,4
310,3.14,0.28,8.31,-0.02,-0.03,0.02,632.0,630.0,646.0,654.0,603.0,3,4
311,3.17,0.27,8.29,-0.03,-0.02,0.01,632.0,631.0,646.0,654.0,603.0,3,4
312,3.1,0.27,8.32,-0.02,-0.02,0.02,632.0,630.0,646.0,653.0,603.0,3,4
313,3.3,0.29,8.35,-0.03,-0.02,0.01,632.0,630.0,646.0,654.0,603.0,3,4
314,3.13,0.22,8.37,-0.03,-0.02,0.0,633.0,631.0,647.0,653.0,603.0,3,4
315,3.1,0.25,8.34,-0.02,0.0,0.0,632.0,630.0,646.0,653.0,603.0,3,4
316,3.21,0.26,8.34,-0.03,-0.02,-0.01,633.0,630.0,646.0,653.0,603.0,3,4
317,3.1,0.25,8.34,-0.03,0.01,-0.01,633.0,630.0,646.0,653.0,603.0,3,4
318,3.2,0.25,8.3,-0.03,-0.03,-0.01,632.0,630.0,646.0,653.0,604.0,3,4
319,2.94,0.23,8.45,-0.02,0.01,0.01,633.0,630.0,646.0,653.0,604.0,3,4
320,3.23,0.27,8.34,-0.02,-0.03,0.02,632.0,631.0,646.0,653.0,604.0,3,4
321,3.12,0.28,8.34,-0.03,0.01,0.01,633.0,631.0,646.0,654.0,604.0,3,4
322,3.1,0.26,8.24,-0.03,-0.02,0.01,633.0,631.0,647.0,653.0,603.0,3,4
323,3.14,0.23,8.32,-0.03,-0.01,0.0,632.0,631.0,646.0,653.0,603.0,3,4
324,3.17,0.28,8.29,-0.03,-0.02,-0.0,632.0,629.0,646.0,653.0,603.0,3,4
325,3.06,0.28,8.34,-0.03,-0.02,-0.01,632.0,631.0,646.0,654.0,603.0,3,4
326,3.1,0.26,8.37,-0.03,-0.02,0.01,633.0,631.0,646.0,653.0,603.0,3,4
327,3.06,0.28,8.38,-0.03,-0.04,0.02,632.0,631.0,646.0,653.0,603.0,3,4
328,3.2,0.27,8.34,-0.02,-0.01,0.01,633.0,631.0,646.0,654.0,603.0,3,4
329,3.15,0.27,8.32,-0.03,-0.02,0.0,632.0,630.0,646.0,653.0,604.0,3,4
330,3.03,0.28,8.32,-0.03,-0.01,0.0,633.0,631.0,647.0,653.0,603.0,3,4
331,3.16,0.25,8.33,-0.03,-0.01,0.01,632.0,631.0,646.0,653.0,602.0,3,4
332,3.08,0.29,8.26,-0.03,-0.02,0.01,633.0,631.0,646.0,653.0,604.0,3,4
333,3.1,0.28,8.36,-0.03,-0.01,0.01,633.0,631.0,646.0,653.0,603.0,3,4
334,3.18,0.24,8.34,-0.03,-0.02,0.01,633.0,631.0,646.0,653.0,603.0,3,4
335,3.1,0.28,8.31,-0.03,-0.02,0.01,632.0,631.0,646.0,653.0,603.0,3,4
336,3.13,0.27,8.3,-0.03,-0.01,0.01,632.0,631.0,646.0,653.0,603.0,3,4
337,3.11,0.29,8.41,-0.03,-0.01,0.01,633.0,631.0,646.0,654.0,603.0,3,4
338,3.07,0.27,8.37,-0.03,-0.01,0.0,633.0,631.0,646.0,653.0,603.0,3,4
339,3.13,0.24,8.34,-0.03,-0.02,0.0,632.0,630.0,646.0,654.0,603.0,3,4
340,3.12,0.26,8.39,-0.03,-0.02,0.01,632.0,631.0,646.0,653.0,603.0,3,4
341,3.12,0.23,8.39,-0.03,-0.01,0.0,633.0,630.0,646.0,653.0,603.0,3,4
342,3.14,0.25,8.24,-0.03,-0.03,0.0,633.0,631.0,646.0,653.0,603.0,3,4
343,3.06,0.27,8.37,-0.03,-0.02,0.01,633.0,631.0,646.0,653.0,603.0,3,4
344,3.12,0.24,8.34,-0.03,-0.01,0.01,633.0,630.0,646.0,654.0,604.0,3,4
345,3.16,0.27,8.33,-0.03,-0.02,0.01,632.0,631.0,646.0,653.0,603.0,3,4
346,3.14,0.27,8.26,-0.03,-0.02,0.01,632.0,631.0,647.0,653.0,603.0,3,4
347,3.13,0.27,8.36,-0.03,-0.02,0.01,632.0,632.0,646.0,653.0,603.0,3,4
348,3.13,0.28,8.35,-0.03,-0.01,0.01,632.0,631.0,646.0,653.0,603.0,3,4
349,3.12,0.25,8.32,-0.03,-0.01,0.01,632.0,631.0,647.0,653.0,603.0,3,4
350,3.11,0.3,8.3,-0.03,-0.02,0.01,632.0,631.0,646.0,653.0,603.0,3,4
351,3.06,0.22,8.24,-0.03,-0.03,0.01,633.0,630.0,646.0,653.0,603.0,3,4
352,3.12,0.26,8.42,-0.03,-0.02,0.01,632.0,631.0,647.0,653.0,603.0,3,4
353,3.13,0.27,8.32,-0.03,-0.02,0.01,632.0,631.0,646.0,653.0,603.0,3,4
354,3.17,0.28,8.36,-0.03,-0.02,0.01,633.0,631.0,646.0,654.0,603.0,3,4
355,3.1,0.27,8.42,-0.03,-0.02,0.01,632.0,631.0,646.0,654.0,603.0,3,4
356,3.2,0.23,8.36,-0.03,-0.01,0.01,633.0,631.0,646.0,653.0,603.0,3,4
357,3.16,0.29,8.38,-0.03,-0.02,0.01,632.0,630.0,646.0,653.0,603.0,3,4
358,3.18,0.26,8.33,-0.03,-0.02,0.0,632.0,631.0,646.0,653.0,603.0,3,4
359,3.11,0.28,8.35,-0.03,-0.02,0.01,632.0,632.0,645.0,653.0,603.0,3,4
360,3.12,0.25,8.38,-0.03,-0.02,0.0,632.0,631.0,646.0,653.0,603.0,3,4
361,3.15,0.27,8.34,-0.02,-0.02,0.01,633.0,631.0,646.0,653.0,603.0,3,4
362,3.15,0.27,8.31,-0.03,-0.0,0.01,633.0,631.0,646.0,653.0,604.0,3,4
363,3.2,0.25,8.37,-0.03,-0.01,0.0,632.0,631.0,646.0,653.0,604.0,3,4
364,3.12,0.25,8.32,-0.03,-0.02,0.0,632.0,631.0,646.0,653.0,603.0,3,4
365,3.1,0.28,8.34,-0.03,-0.0,0.0,633.0,630.0,646.0,654.0,603.0,3,4
366,3.18,0.3,8.36,-0.03,-0.02,0.0,633.0,630.0,646.0,653.0,603.0,3,4
367,3.1,0.29,8.37,-0.03,-0.02,0.01,632.0,631.0,646.0,654.0,603.0,3,4
368,3.13,0.25,8.3,-0.03,-0.03,0.01,633.0,631.0,646.0,653.0,603.0,3,4
369,3.16,0.27,8.38,-0.03,-0.01,0.0,633.0,630.0,646.0,654.0,603.0,3,4
370,3.26,0.24,8.34,-0.03,-0.02,-0.01,632.0,631.0,646.0,654.0,604.0,3,4
371,3.08,0.29,8.4,-0.03,-0.01,-0.0,633.0,631.0,646.0,653.0,604.0,3,4
372,3.09,0.27,8.48,-0.03,-0.01,0.01,634.0,631.0,647.0,653.0,603.0,3,4
373,3.18,0.25,8.32,-0.03,-0.01,0.01,633.0,630.0,646.0,654.0,603.0,3,4
374,3.02,0.31,8.43,-0.03,-0.01,0.01,633.0,631.0,647.0,653.0,604.0,3,4
375,3.18,0.3,8.37,-0.03,-0.01,0.01,632.0,630.0,646.0,654.0,603.0,3,4
376,3.07,0.27,8.37,-0.02,-0.01,0.02,633.0,631.0,646.0,653.0,603.0,3,4
377,3.11,0.25,8.32,-0.02,-0.0,0.01,632.0,631.0,646.0,653.0,603.0,3,4
378,3.13,0.32,8.38,-0.03,-0.01,0.0,633.0,631.0,646.0,653.0,604.0,3,4
379,3.09,0.26,8.48,-0.02,-0.03,0.01,633.0,631.0,646.0,653.0,603.0,3,4
380,3.16,0.29,8.33,-0.03,-0.03,0.01,633.0,631.0,646.0,653.0,603.0,3,4
381,3.03,0.33,8.32,-0.03,-0.02,0.01,632.0,631.0,646.0,653.0,603.0,3,4
382,3.19,0.24,8.3,-0.03,-0.01,0.01,633.0,631.0,646.0,653.0,603.0,3,4
383,3.04,0.33,8.34,-0.03,-0.01,0.0,633.0,631.0,646.0,654.0,603.0,3,4
384,3.07,0.31,8.29,-0.03,-0.01,0.01,632.0,631.0,646.0,654.0,604.0,3,4
385,3.11,0.23,8.35,-0.03,-0.01,0.0,632.0,631.0,646.0,654.0,603.0,3,4
386,3.01,0.26,8.27,-0.03,-0.02,0.0,632.0,631.0,647.0,653.0,603.0,3,4
387,3.2,0.24,8.48,-0.03,-0.02,0.0,632.0,631.0,646.0,653.0,603.0,3,4
388,3.08,0.26,8.39,-0.03,-0.02,0.01,632.0,630.0,646.0,653.0,603.0,3,4
389,3.16,0.29,8.39,-0.03,-0.02,0.0,632.0,631.0,646.0,653.0,603.0,3,4
390,3.06,0.32,8.39,-0.03,-0.02,0.01,632.0,630.0,646.0,653.0,603.0,3,4
391,3.11,0.26,8.32,-0.03,-0.02,-0.0,633.0,631.0,646.0,654.0,603.0,3,4
392,3.17,0.28,8.35,-0.04,-0.01,-0.02,633.0,631.0,646.0,653.0,603.0,3,4
393,2.99,0.23,8.34,-0.04,-0.01,-0.01,632.0,631.0,646.0,654.0,603.0,3,4
394,3.07,0.31,8.38,-0.03,-0.0,-0.0,633.0,631.0,646.0,653.0,603.0,3,4
395,3.12,0.28,8.36,-0.03,-0.0,-0.0,632.0,631.0,647.0,654.0,603.0,3,4
396,3.22,0.26,8.37,-0.04,-0.04,0.0,631.0,631.0,646.0,654.0,603.0,3,4
397,3.1,0.31,8.36,-0.02,-0.0,0.01,633.0,631.0,646.0,653.0,603.0,3,4
398,3.09,0.26,8.41,-0.03,-0.01,-0.0,632.0,631.0,646.0,653.0,603.0,3,4
399,3.17,0.26,8.33,-0.04,-0.01,-0.01,633.0,631.0,646.0,653.0,603.0,3,4
400,3.04,0.28,8.35,-0.03,-0.01,-0.0,632.0,631.0,646.0,653.0,604.0,3,4
401,2.91,0.27,8.39,-0.03,-0.01,0.0,632.0,631.0,647.0,653.0,603.0,3,4
402,3.04,0.32,8.35,-0.03,-0.01,0.01,633.0,631.0,646.0,653.0,603.0,3,4
403,3.07,0.27,8.36,-0.03,-0.0,0.0,632.0,631.0,646.0,653.0,602.0,3,4
404,3.06,0.29,8.49,-0.03,-0.01,-0.0,633.0,631.0,646.0,653.0,603.0,3,4
405,3.01,0.25,8.36,-0.03,-0.01,0.01,633.0,632.0,646.0,653.0,603.0,3,4
406,3.08,0.33,8.3,-0.03,-0.02,0.01,633.0,631.0,646.0,653.0,603.0,3,4
407,2.99,0.27,8.35,-0.03,-0.01,0.0,633.0,631.0,646.0,653.0,604.0,3,4
408,3.08,0.21,8.43,-0.02,-0.01,0.01,632.0,630.0,646.0,654.0,604.0,3,4
409,3.0,0.28,8.38,-0.03,-0.02,0.01,632.0,630.0,646.0,654.0,603.0,3,4
410,3.07,0.24,8.4,-0.04,-0.07,0.01,633.0,631.0,646.0,653.0,604.0,3,4
411,3.24,0.26,8.4,-0.03,-0.03,0.01,632.0,631.0,646.0,654.0,603.0,3,4
412,3.08,0.25,8.42,-0.03,-0.01,0.01,633.0,631.0,646.0,653.0,603.0,3,4
413,3.06,0.07,8.39,-0.03,0.04,0.0,632.0,631.0,646.0,654.0,603.0,3,4
414,3.08,0.28,8.36,-0.03,-0.04,0.01,633.0,631.0,646.0,654.0,603.0,3,4
415,3.01,0.29,8.36,-0.02,-0.0,0.01,632.0,631.0,646.0,653.0,603.0,3,4
416,3.0,0.26,8.33,-0.02,-0.0,0.02,632.0,632.0,646.0,653.0,604.0,3,4
417,2.95,0.31,8.39,-0.02,-0.02,0.02,632.0,631.0,646.0,654.0,603.0,3,4
418,3.21,0.28,8.32,-0.03,-0.02,0.01,632.0,631.0,646.0,653.0,604.0,3,4
419,3.03,0.31,8.38,-0.02,-0.03,0.02,632.0,630.0,646.0,653.0,604.0,3,4
420,3.09,0.28,8.47,-0.03,-0.03,0.02,632.0,631.0,646.0,653.0,603.0,3,4
421,3.08,0.27,8.36,-0.03,-0.03,0.01,632.0,631.0,646.0,653.0,603.0,3,4
422,3.1,0.3,8.25,-0.03,-0.02,0.01,632.0,631.0,646.0,653.0,603.0,3,4
423,3.0,0.29,8.4,-0.04,0.01,0.0,632.0,631.0,646.0,653.0,603.0,3,4
424,3.05,0.29,8.34,-0.03,0.01,0.0,632.0,631.0,646.0,653.0,603.0,3,4
425,2.98,0.31,8.35,-0.03,-0.01,0.0,631.0,631.0,646.0,653.0,603.0,3,4
426,3.0,0.26,8.32,-0.03,-0.01,0.01,631.0,630.0,646.0,653.0,604.0,3,4
427,2.94,0.29,8.4,-0.03,-0.04,0.0,632.0,631.0,646.0,654.0,603.0,3,4
428,3.04,0.23,8.39,-0.03,0.01,0.01,632.0,631.0,646.0,653.0,603.0,3,4
429,2.89,0.32,8.36,-0.02,0.01,0.01,631.0,631.0,646.0,653.0,603.0,3,4
430,3.0,0.31,8.39,-0.03,0.01,0.0,631.0,631.0,646.0,653.0,603.0,3,4
431,2.95,0.2,8.37,-0.03,-0.05,0.0,631.0,631.0,645.0,653.0,603.0,3,4
432,3.18,0.21,8.34,-0.03,-0.04,0.01,632.0,630.0,646.0,654.0,603.0,3,4
433,3.12,0.23,8.28,-0.03,-0.05,0.0,632.0,630.0,646.0,653.0,603.0,3,4
434,2.8,0.34,8.4,-0.03,-0.02,0.01,632.0,631.0,646.0,653.0,603.0,3,4
435,3.01,0.26,8.26,-0.02,0.02,0.01,631.0,630.0,645.0,653.0,603.0,3,4
436,3.04,0.31,8.32,-0.03,-0.0,-0.0,631.0,631.0,646.0,653.0,604.0,3,4
437,3.17,0.3,8.36,-0.03,0.01,0.01,631.0,630.0,646.0,653.0,603.0,3,4
438,3.13,0.27,8.36,-0.03,-0.02,0.01,631.0,631.0,646.0,654.0,603.0,3,4
439,3.23,0.23,8.35,-0.03,-0.02,-0.0,631.0,630.0,646.0,653.0,603.0,3,4
440,3.05,0.28,8.33,-0.03,-0.03,-0.0,631.0,630.0,646.0,653.0,603.0,3,4
441,3.06,0.31,8.33,-0.03,-0.03,0.0,632.0,630.0,645.0,652.0,603.0,3,4
442,3.02,0.27,8.43,-0.03,-0.02,0.0,631.0,631.0,646.0,653.0,603.0,3,4
443,3.1,0.24,8.35,-0.03,0.0,0.01,631.0,631.0,645.0,653.0,603.0,3,4
444,3.01,0.3,8.42,-0.03,-0.03,0.01,631.0,631.0,645.0,653.0,603.0,3,4
445,3.13,0.25,8.32,-0.03,-0.03,0.01,632.0,630.0,646.0,653.0,603.0,3,4
446,3.06,0.26,8.35,-0.03,0.01,0.01,631.0,630.0,645.0,653.0,604.0,3,4
447,3.07,0.26,8.37,-0.03,-0.01,0.0,632.0,631.0,646.0,653.0,603.0,3,4
448,2.82,0.37,8.4,-0.02,-0.0,0.01,632.0,631.0,646.0,653.0,603.0,3,4
449,3.12,0.2,8.33,-0.03,-0.01,0.0,632.0,631.0,645.0,653.0,603.0,3,4
450,3.26,0.25,8.33,-0.03,-0.01,0.01,631.0,631.0,645.0,653.0,603.0,4,4
451,3.28,0.21,8.28,-0.03,-0.0,0.0,630.0,630.0,645.0,653.0,603.0,4,4
452,3.19,0.25,8.32,-0.03,-0.03,0.01,631.0,630.0,645.0,653.0,603.0,4,4
453,3.24,0.21,8.3,-0.03,-0.01,0.01,630.0,631.0,645.0,653.0,603.0,4,4
454,3.22,0.26,8.3,-0.03,-0.04,0.0,630.0,631.0,645.0,653.0,603.0,4,4
455,3.29,0.2,8.27,-0.03,0.01,0.0,630.0,631.0,645.0,653.0,603.0,4,4
456,3.17,0.26,8.3,-0.03,-0.03,0.01,631.0,631.0,645.0,653.0,603.0,4,4
457,3.27,0.25,8.34,-0.02,0.01,0.0,629.0,631.0,645.0,654.0,603.0,4,4
458,3.17,0.22,8.32,-0.03,-0.01,-0.01,630.0,631.0,645.0,653.0,603.0,4,4
459,3.19,0.24,8.31,-0.03,-0.01,-0.01,632.0,631.0,646.0,653.0,602.0,4,4
460,3.2,0.26,8.28,-0.03,-0.01,-0.0,630.0,631.0,645.0,653.0,603.0,4,4
461,3.07,0.24,8.37,-0.02,-0.0,0.01,631.0,631.0,645.0,653.0,604.0,4,4
462,3.23,0.25,8.31,-0.02,-0.04,0.03,631.0,630.0,645.0,653.0,603.0,4,4
463,3.27,0.25,8.3,-0.02,-0.0,0.02,630.0,631.0,646.0,653.0,603.0,4,4
464,3.19,0.25,8.29,-0.02,-0.05,0.02,630.0,630.0,646.0,654.0,603.0,4,4
465,3.22,0.27,8.3,-0.02,-0.01,0.01,631.0,631.0,645.0,653.0,603.0,4,4
466,3.22,0.28,8.33,-0.03,-0.03,-0.0,631.0,631.0,646.0,653.0,603.0,4,4
467,3.2,0.3,8.37,-0.03,0.01,-0.0,630.0,631.0,645.0,653.0,604.0,4,4
468,3.22,0.25,8.27,-0.02,-0.0,0.01,631.0,631.0,645.0,653.0,603.0,4,4
469,3.05,0.28,8.27,-0.02,0.01,0.02,630.0,630.0,646.0,654.0,603.0,4,4
470,3.21,0.28,8.29,-0.02,-0.02,0.02,630.0,630.0,645.0,653.0,604.0,4,4
471,3.16,0.27,8.36,-0.02,-0.03,0.03,631.0,630.0,646.0,654.0,603.0,4,4
472,3.23,0.26,8.29,-0.02,-0.02,0.02,631.0,631.0,645.0,654.0,604.0,4,4
473,3.23,0.31,8.27,-0.02,-0.03,0.01,630.0,630.0,646.0,653.0,603.0,4,4
474,3.2,0.31,8.37,-0.03,-0.0,0.0,630.0,630.0,645.0,652.0,604.0,4,4
475,3.2,0.27,8.32,-0.03,-0.01,-0.0,630.0,631.0,645.0,653.0,603.0,4,4
476,3.15,0.28,8.37,-0.03,-0.01,-0.0,630.0,631.0,646.0,653.0,604.0,4,4
477,3.21,0.32,8.35,-0.03,-0.01,0.0,630.0,630.0,645.0,653.0,603.0,4,4
478,3.22,0.28,8.31,-0.03,-0.01,-0.0,630.0,631.0,645.0,653.0,603.0,4,4
479,3.19,0.29,8.34,-0.03,-0.01,0.0,630.0,630.0,646.0,653.0,603.0,4,4
480,3.15,0.29,8.32,-0.03,-0.02,0.0,630.0,630.0,646.0,653.0,604.0,4,4
481,3.19,0.28,8.37,-0.03,-0.03,0.0,631.0,632.0,645.0,653.0,603.0,4,4
482,3.22,0.31,8.3,-0.03,-0.01,0.0,631.0,630.0,645.0,654.0,603.0,4,4
483,3.22,0.3,8.34,-0.03,-0.01,0.01,631.0,631.0,646.0,653.0,603.0,4,4
484,3.21,0.29,8.31,-0.03,-0.02,0.01,632.0,632.0,645.0,653.0,603.0,4,4
485,3.19,0.27,8.33,-0.03,-0.01,0.01,632.0,630.0,645.0,653.0,604.0,4,4
486,3.17,0.29,8.33,-0.03,-0.02,0.01,631.0,631.0,645.0,653.0,603.0,4,4
487,3.2,0.28,8.34,-0.03,-0.01,0.0,631.0,631.0,645.0,653.0,603.0,4,4
488,3.22,0.3,8.32,-0.03,-0.02,0.0,631.0,630.0,646.0,653.0,603.0,4,4
489,3.17,0.33,8.34,-0.03,-0.01,0.01,631.0,630.0,645.0,653.0,603.0,4,4
490,3.2,0.25,8.33,-0.03,-0.02,0.0,631.0,630.0,645.0,653.0,603.0,4,4
491,3.2,0.26,8.32,-0.03,-0.02,0.0,631.0,631.0,646.0,653.0,603.0,4,4
492,3.18,0.28,8.36,-0.03,-0.01,0.01,630.0,631.0,645.0,653.0,604.0,4,4
493,3.21,0.28,8.37,-0.03,-0.02,0.0,630.0,631.0,645.0,653.0,603.0,4,4
494,3.22,0.29,8.3,-0.03,-0.01,0.0,631.0,631.0,646.0,653.0,603.0,4,4
495,3.15,0.3,8.36,-0.03,-0.02,0.0,631.0,630.0,645.0,653.0,603.0,4,4
496,3.17,0.27,8.34,-0.03,-0.01,0.0,630.0,630.0,645.0,653.0,603.0,4,4
497,3.23,0.3,8.29,-0.03,-0.01,0.01,631.0,631.0,645.0,653.0,603.0,4,4
498,3.17,0.27,8.38,-0.03,-0.01,0.0,631.0,630.0,646.0,653.0,603.0,4,4
499,3.18,0.26,8.34,-0.03,-0.02,0.01,631.0,630.0,645.0,653.0,603.0,4,4
500,3.2,0.29,8.34,-0.03,-0.02,0.01,631.0,630.0,645.0,653.0,603.0,4,4
501,3.18,0.27,8.33,-0.03,-0.01,0.01,631.0,632.0,645.0,653.0,603.0,4,4
502,3.15,0.29,8.32,-0.03,-0.01,0.01,631.0,631.0,645.0,653.0,603.0,4,4
503,3.21,0.28,8.34,-0.03,-0.01,0.0,631.0,630.0,645.0,653.0,603.0,4,4
504,3.19,0.32,8.35,-0.03,-0.02,0.01,631.0,631.0,646.0,653.0,603.0,4,4
505,3.19,0.3,8.32,-0.03,-0.02,0.0,631.0,630.0,645.0,653.0,603.0,4,4
506,3.15,0.3,8.32,-0.03,-0.02,0.0,631.0,630.0,645.0,653.0,603.0,4,4
507,3.2,0.28,8.28,-0.03,-0.02,0.01,631.0,631.0,645.0,653.0,604.0,4,4
508,3.2,0.33,8.32,-0.03,-0.02,0.01,630.0,630.0,645.0,653.0,603.0,4,4
509,3.2,0.3,8.33,-0.03,-0.02,0.01,631.0,631.0,645.0,653.0,603.0,4,4
510,3.17,0.28,8.34,-0.03,-0.02,0.01,631.0,630.0,645.0,653.0,603.0,4,4
511,3.13,0.31,8.34,-0.03,-0.02,0.01,631.0,631.0,645.0,654.0,603.0,4,4
512,3.22,0.29,8.29,-0.03,-0.01,0.01,631.0,630.0,646.0,653.0,603.0,4,4
513,3.19,0.25,8.33,-0.03,-0.01,0.01,632.0,631.0,645.0,653.0,603.0,4,4
514,3.17,0.29,8.37,-0.03,-0.01,0.01,631.0,631.0,645.0,653.0,603.0,4,4
515,3.16,0.28,8.38,-0.03,-0.02,0.01,630.0,631.0,645.0,653.0,604.0,4,4
516,3.15,0.26,8.4,-0.03,-0.02,0.0,631.0,631.0,645.0,653.0,603.0,4,4
517,3.19,0.28,8.31,-0.02,-0.02,0.01,631.0,631.0,645.0,653.0,603.0,4,4
518,3.2,0.29,8.32,-0.03,-0.01,0.0,632.0,630.0,644.0,653.0,603.0,4,4
519,3.17,0.29,8.34,-0.03,-0.01,0.01,631.0,630.0,646.0,653.0,603.0,4,4
520,3.08,0.27,8.33,-0.03,-0.01,0.01,631.0,630.0,645.0,653.0,602.0,4,4
521,3.19,0.29,8.32,-0.03,-0.0,0.0,631.0,631.0,645.0,653.0,603.0,4,4
522,3.2,0.3,8.33,-0.03,-0.01,0.0,631.0,630.0,645.0,653.0,603.0,4,4
523,3.19,0.28,8.37,-0.03,-0.01,-0.0,630.0,631.0,645.0,653.0,603.0,4,4
524,3.17,0.29,8.33,-0.03,-0.01,-0.0,631.0,631.0,645.0,653.0,603.0,4,4
525,3.08,0.26,8.4,-0.04,-0.02,-0.01,631.0,630.0,645.0,653.0,603.0,4,4
526,3.12,0.3,8.35,-0.03,-0.01,-0.0,631.0,631.0,645.0,653.0,603.0,4,4
527,3.18,0.25,8.35,-0.03,-0.01,0.0,631.0,630.0,645.0,653.0,603.0,4,4
528,3.15,0.3,8.32,-0.02,-0.01,0.01,632.0,631.0,645.0,653.0,603.0,4,4
529,3.18,0.26,8.35,-0.02,-0.01,0.01,631.0,630.0,645.0,654.0,603.0,4,4
530,3.14,0.26,8.34,-0.02,-0.02,0.01,631.0,631.0,645.0,653.0,603.0,4,4
531,3.09,0.3,8.31,-0.03,-0.02,0.01,630.0,631.0,646.0,653.0,603.0,4,4
532,3.18,0.3,8.33,-0.03,-0.02,0.01,631.0,631.0,646.0,653.0,603.0,4,4
533,3.11,0.33,8.32,-0.03,-0.01,0.0,631.0,631.0,646.0,653.0,603.0,4,4
534,3.17,0.28,8.35,-0.03,-0.02,0.0,631.0,631.0,646.0,653.0,604.0,4,4
535,3.13,0.3,8.28,-0.03,-0.01,0.0,631.0,630.0,646.0,654.0,603.0,4,4
536,3.16,0.28,8.32,-0.03,-0.01,-0.0,631.0,631.0,645.0,653.0,603.0,4,4
537,3.12,0.28,8.32,-0.03,-0.02,-0.0,631.0,631.0,646.0,653.0,603.0,4,4
538,3.16,0.28,8.38,-0.03,-0.02,0.0,631.0,631.0,645.0,653.0,603.0,4,4
539,3.12,0.26,8.43,-0.03,-0.01,0.0,631.0,631.0,645.0,653.0,603.0,4,4
540,3.17,0.28,8.32,-0.03,-0.02,0.0,631.0,631.0,646.0,653.0,603.0,4,4
541,3.15,0.27,8.32,-0.03,-0.02,0.01,631.0,631.0,646.0,653.0,603.0,4,4
542,3.11,0.32,8.32,-0.03,-0.01,0.0,632.0,631.0,645.0,653.0,603.0,4,4
543,3.18,0.29,8.35,-0.03,-0.01,0.01,630.0,632.0,646.0,653.0,604.0,4,4
544,3.18,0.28,8.39,-0.03,-0.02,0.01,631.0,630.0,646.0,653.0,603.0,4,4
545,3.12,0.26,8.38,-0.03,-0.02,0.01,631.0,631.0,646.0,653.0,603.0,4,4
546,3.2,0.31,8.37,-0.03,-0.01,0.0,631.0,631.0,645.0,653.0,603.0,4,4
547,3.11,0.29,8.36,-0.03,-0.02,0.01,631.0,630.0,645.0,653.0,603.0,4,4
548,3.16,0.27,8.33,-0.03,-0.01,0.01,631.0,631.0,645.0,653.0,603.0,4,4
549,3.12,0.28,8.39,-0.03,-0.01,0.01,631.0,630.0,645.0,653.0,603.0,4,4
550,3.19,0.28,8.33,-0.03,-0.02,0.01,631.0,630.0,645.0,653.0,603.0,4,4
551,3.11,0.29,8.38,-0.03,-0.02,0.01,631.0,630.0,645.0,653.0,603.0,4,4
552,3.17,0.3,8.36,-0.03,-0.01,0.01,631.0,630.0,646.0,653.0,603.0,4,4
553,3.13,0.25,8.39,-0.03,-0.02,0.01,631.0,630.0,645.0,653.0,603.0,4,4
554,3.13,0.31,8.34,-0.03,-0.02,0.0,631.0,630.0,645.0,653.0,603.0,4,4
555,3.16,0.3,8.38,-0.03,-0.01,0.0,630.0,630.0,645.0,654.0,603.0,4,4
556,3.15,0.26,8.37,-0.03,-0.02,0.0,631.0,630.0,645.0,653.0,604.0,4,4
557,3.14,0.28,8.37,-0.03,-0.02,0.0,631.0,630.0,645.0,654.0,603.0,4,4
558,3.13,0.3,8.45,-0.03,-0.01,0.0,631.0,630.0,646.0,654.0,604.0,4,4
559,3.15,0.29,8.33,-0.03,-0.02,0.0,630.0,631.0,645.0,653.0,603.0,4,4
560,3.09,0.3,8.36,-0.03,-0.02,0.01,632.0,631.0,645.0,653.0,603.0,4,4
561,3.11,0.3,8.36,-0.03,-0.01,0.01,631.0,631.0,645.0,654.0,603.0,4,4
562,3.15,0.31,8.32,-0.03,-0.01,0.01,631.0,631.0,645.0,653.0,603.0,4,4
563,3.19,0.28,8.34,-0.03,-0.02,0.01,631.0,630.0,646.0,653.0,603.0,4,4
564,3.09,0.31,8.33,-0.03,-0.01,0.01,631.0,630.0,646.0,653.0,603.0,4,4
565,3.1,0.31,8.34,-0.03,-0.01,0.01,631.0,631.0,646.0,654.0,603.0,4,4
566,3.14,0.31,8.35,-0.03,-0.02,0.01,631.0,631.0,645.0,654.0,604.0,4,4
567,3.13,0.28,8.34,-0.03,-0.01,0.01,632.0,631.0,645.0,653.0,603.0,4,4
568,3.15,0.28,8.33,-0.03,-0.02,0.01,632.0,631.0,645.0,653.0,603.0,4,4
569,3.15,0.28,8.31,-0.03,-0.02,0.01,631.0,631.0,645.0,653.0,603.0,4,4
570,3.11,0.29,8.34,-0.03,-0.01,0.01,631.0,630.0,646.0,653.0,602.0,4,4
571,3.17,0.26,8.33,-0.03,-0.01,0.01,631.0,630.0,646.0,654.0,604.0,4,4
572,3.13,0.28,8.32,-0.03,-0.02,0.01,632.0,630.0,646.0,653.0,603.0,4,4
573,3.14,0.23,8.37,-0.03,-0.02,0.01,632.0,631.0,645.0,653.0,603.0,4,4
574,3.14,0.31,8.32,-0.03,-0.02,0.01,632.0,631.0,646.0,653.0,603.0,4,4
575,3.13,0.3,8.34,-0.03,-0.02,0.01,631.0,631.0,646.0,654.0,603.0,4,4
576,3.11,0.29,8.34,-0.03,-0.02,0.01,631.0,631.0,645.0,653.0,603.0,4,4
577,3.14,0.31,8.36,-0.03,-0.02,0.01,632.0,630.0,645.0,653.0,603.0,4,4
578,3.13,0.3,8.33,-0.03,-0.02,0.0,631.0,630.0,645.0,653.0,604.0,4,4
579,3.17,0.26,8.33,-0.03,-0.01,0.0,631.0,631.0,645.0,653.0,604.0,4,4
580,3.16,0.32,8.32,-0.03,-0.02,0.0,630.0,629.0,645.0,653.0,604.0,4,4
581,3.14,0.31,8.35,-0.03,-0.01,0.0,631.0,631.0,645.0,653.0,603.0,4,4
582,3.13,0.29,8.35,-0.03,-0.01,0.0,630.0,630.0,647.0,653.0,603.0,4,4
583,3.18,0.28,8.34,-0.03,-0.01,0.0,631.0,631.0,645.0,653.0,603.0,4,4
584,3.09,0.28,8.28,-0.03,-0.01,0.0,632.0,630.0,645.0,654.0,603.0,4,4
585,3.17,0.29,8.29,-0.03,-0.01,0.0,631.0,631.0,645.0,653.0,603.0,4,4
586,3.18,0.32,8.32,-0.03,-0.01,-0.0,631.0,631.0,646.0,653.0,603.0,4,4
587,3.11,0.3,8.31,-0.03,-0.01,-0.0,631.0,631.0,645.0,653.0,603.0,4,4
588,3.13,0.28,8.37,-0.03,-0.0,-0.0,631.0,630.0,646.0,653.0,603.0,4,4
589,3.13,0.27,8.36,-0.03,0.0,0.0,631.0,631.0,646.0,653.0,603.0,4,4
590,3.07,0.29,8.39,-0.03,-0.01,0.0,632.0,630.0,646.0,653.0,603.0,4,4
591,3.06,0.3,8.28,-0.03,0.01,-0.0,632.0,631.0,645.0,653.0,603.0,4,4
592,3.15,0.25,8.34,-0.03,-0.01,-0.01,631.0,630.0,645.0,653.0,603.0,4,4
593,3.04,0.29,8.38,-0.03,0.0,-0.01,631.0,631.0,646.0,653.0,603.0,4,4
594,3.13,0.26,8.43,-0.04,-0.03,-0.01,632.0,631.0,645.0,653.0,603.0,4,4
595,3.03,0.29,8.35,-0.03,-0.02,0.0,632.0,630.0,646.0,652.0,603.0,4,4
596,3.07,0.28,8.39,-0.03,-0.02,0.01,631.0,631.0,645.0,653.0,603.0,4,4
597,3.08,0.27,8.36,-0.03,-0.02,0.01,632.0,631.0,646.0,653.0,603.0,4,4
598,3.07,0.32,8.38,-0.03,-0.02,0.02,632.0,631.0,645.0,653.0,603.0,4,4
599,3.04,0.29,8.37,-0.03,-0.01,0.01,631.0,631.0,646.0,653.0,603.0,4,4
600,0.56,-2.55,8.44,-0.01,0.02,-0.01,593.0,590.0,569.0,609.0,558.0,5,4
601,0.97,-2.52,8.48,0.0,-0.1,-0.02,593.0,589.0,570.0,609.0,559.0,5,4
602,0.66,-3.01,8.45,0.09,-0.02,0.01,595.0,589.0,570.0,609.0,558.0,5,4
603,0.89,-2.04,8.66,0.12,-0.05,-0.02,595.0,584.0,560.0,604.0,558.0,5,4
604,0.77,-2.18,8.45,0.11,-0.14,-0.0,596.0,582.0,558.0,602.0,556.0,5,4
605,1.01,-2.18,8.5,0.02,0.1,0.01,598.0,582.0,556.0,601.0,556.0,5,4
606,0.99,-2.28,8.42,-0.02,-0.03,-0.02,599.0,583.0,556.0,600.0,555.0,5,4
607,0.8,-2.24,8.43,-0.03,0.01,0.01,601.0,582.0,557.0,601.0,556.0,5,4
608,0.85,-2.23,8.54,-0.03,-0.02,0.01,603.0,583.0,558.0,601.0,556.0,5,4
609,0.84,-2.25,8.61,-0.02,0.03,-0.0,604.0,583.0,558.0,601.0,556.0,5,4
610,0.68,-2.23,8.55,-0.02,0.06,-0.01,605.0,583.0,559.0,602.0,557.0,5,4
611,0.71,-2.27,8.51,-0.03,-0.01,-0.01,605.0,585.0,560.0,601.0,557.0,5,4
612,0.42,-2.2,8.56,-0.03,0.02,0.01,605.0,584.0,560.0,602.0,557.0,5,4
613,0.9,-2.17,8.54,-0.02,-0.05,0.02,605.0,585.0,561.0,601.0,558.0,5,4
614,0.61,-2.21,8.52,-0.02,-0.02,0.01,605.0,584.0,560.0,602.0,558.0,5,4
615,0.71,-2.21,8.51,-0.02,-0.02,0.01,605.0,584.0,561.0,602.0,558.0,5,4
616,0.79,-2.27,8.55,-0.03,-0.03,-0.0,605.0,584.0,561.0,603.0,558.0,5,4
617,0.78,-2.18,8.57,-0.04,-0.03,0.01,605.0,585.0,562.0,603.0,557.0,5,4
618,0.73,-2.2,8.52,-0.03,-0.01,0.0,605.0,585.0,561.0,603.0,558.0,5,4
619,0.63,-2.22,8.56,-0.03,-0.01,0.0,606.0,585.0,562.0,603.0,557.0,5,4
620,0.78,-2.2,8.52,-0.03,-0.03,0.02,605.0,585.0,562.0,604.0,558.0,5,4
621,0.68,-2.18,8.55,-0.02,-0.01,0.01,605.0,585.0,562.0,603.0,558.0,5,4
622,0.7,-2.25,8.5,-0.03,-0.02,0.01,605.0,585.0,563.0,603.0,558.0,5,4
623,0.8,-2.24,8.55,-0.03,-0.01,0.0,605.0,586.0,563.0,603.0,558.0,5,4
624,0.65,-2.21,8.59,-0.03,-0.01,0.0,606.0,586.0,562.0,603.0,558.0,5,4
625,0.64,-2.21,8.48,-0.03,0.01,-0.0,606.0,586.0,563.0,604.0,558.0,5,4
626,0.72,-2.19,8.53,-0.04,-0.02,0.01,605.0,586.0,563.0,603.0,558.0,5,4
627,0.68,-2.22,8.49,-0.03,0.01,0.01,606.0,586.0,563.0,604.0,559.0,5,4
628,0.66,-2.23,8.54,-0.03,-0.01,0.01,606.0,585.0,563.0,604.0,559.0,5,4
629,0.7,-2.19,8.58,-0.04,-0.01,0.0,606.0,586.0,563.0,604.0,559.0,5,4
630,0.7,-2.23,8.56,-0.03,0.01,-0.0,606.0,586.0,564.0,604.0,559.0,5,4
631,0.71,-2.22,8.51,-0.03,-0.03,0.0,607.0,586.0,563.0,604.0,558.0,5,4
632,0.72,-2.24,8.53,-0.03,-0.01,0.01,607.0,587.0,564.0,605.0,559.0,5,4
633,0.7,-2.18,8.54,-0.03,-0.03,0.0,606.0,586.0,564.0,605.0,560.0,5,4
634,0.65,-2.24,8.55,-0.02,-0.03,0.01,608.0,586.0,564.0,605.0,559.0,5,4
635,0.76,-2.2,8.51,-0.02,-0.02,0.01,606.0,585.0,563.0,605.0,560.0,5,4
636,0.68,-2.22,8.51,-0.02,-0.02,0.01,608.0,586.0,564.0,605.0,559.0,5,4
637,0.77,-2.23,8.54,-0.03,-0.02,0.01,607.0,587.0,564.0,605.0,560.0,5,4
638,0.73,-2.2,8.51,-0.03,-0.04,0.01,607.0,587.0,564.0,605.0,560.0,5,4
639,0.73,-2.18,8.52,-0.04,-0.02,0.01,607.0,587.0,565.0,605.0,559.0,5,4
640,0.63,-2.22,8.56,-0.03,-0.01,0.01,607.0,586.0,564.0,605.0,560.0,5,4
641,0.6,-2.23,8.58,-0.03,0.0,0.01,607.0,587.0,565.0,604.0,560.0,5,4
642,0.72,-2.22,8.52,-0.03,-0.01,0.01,607.0,587.0,565.0,605.0,561.0,5,4
643,0.71,-2.2,8.53,-0.03,-0.01,0.01,607.0,587.0,565.0,605.0,560.0,5,4
644,0.68,-2.2,8.51,-0.03,-0.01,-0.0,608.0,587.0,565.0,605.0,559.0,5,4
645,0.66,-2.24,8.53,-0.03,-0.03,0.01,607.0,586.0,565.0,606.0,560.0,5,4
646,0.77,-2.22,8.48,-0.04,-0.02,0.0,608.0,587.0,565.0,605.0,560.0,5,4
647,0.65,-2.18,8.51,-0.04,-0.02,-0.01,608.0,587.0,565.0,605.0,560.0,5,4
648,0.71,-2.24,8.52,-0.03,-0.01,0.0,607.0,587.0,565.0,605.0,561.0,5,4
649,0.81,-2.21,8.52,-0.02,-0.01,-0.01,608.0,587.0,565.0,605.0,561.0,5,4
650,0.6,-2.23,8.51,-0.03,-0.03,0.01,607.0,587.0,566.0,605.0,561.0,5,4
651,0.76,-2.22,8.54,-0.03,-0.02,0.03,607.0,587.0,566.0,605.0,561.0,5,4
652,0.81,-2.25,8.59,-0.02,-0.01,0.01,608.0,588.0,565.0,605.0,561.0,5,4
653,0.65,-2.23,8.52,-0.02,-0.03,0.0,609.0,588.0,566.0,606.0,560.0,5,4
654,0.69,-2.19,8.49,-0.03,-0.0,0.01,608.0,588.0,566.0,606.0,561.0,5,4
655,0.64,-2.25,8.59,-0.03,-0.04,0.01,608.0,588.0,566.0,606.0,561.0,5,4
656,0.72,-2.23,8.57,-0.02,-0.0,0.04,608.0,588.0,566.0,605.0,561.0,5,4
657,0.86,-2.2,8.53,-0.02,0.01,0.01,608.0,587.0,567.0,606.0,561.0,5,4
658,0.68,-2.24,8.53,-0.03,-0.01,-0.01,608.0,588.0,566.0,606.0,562.0,5,4
659,0.74,-2.2,8.57,-0.03,-0.02,0.01,609.0,587.0,566.0,606.0,561.0,5,4
660,0.7,-2.22,8.52,-0.03,-0.03,0.01,608.0,588.0,566.0,606.0,562.0,5,4
661,0.74,-2.23,8.56,-0.02,-0.04,0.02,607.0,587.0,566.0,606.0,562.0,5,4
662,0.77,-2.23,8.59,-0.02,-0.09,0.01,608.0,588.0,566.0,606.0,562.0,5,4
663,0.75,-2.23,8.57,-0.01,0.02,0.01,608.0,587.0,566.0,607.0,561.0,5,4
664,0.87,-2.2,8.55,-0.03,0.01,-0.01,608.0,587.0,566.0,606.0,562.0,5,4
665,0.75,-2.19,8.56,-0.04,0.0,-0.02,608.0,588.0,566.0,606.0,562.0,5,4
666,0.75,-2.24,8.51,-0.04,0.02,-0.01,609.0,587.0,566.0,606.0,562.0,5,4
667,0.73,-2.2,8.54,-0.03,0.0,0.01,609.0,588.0,567.0,606.0,562.0,5,4
668,0.73,-2.28,8.53,-0.03,-0.04,0.01,607.0,588.0,568.0,606.0,562.0,5,4
669,0.74,-2.24,8.49,-0.02,-0.03,0.01,607.0,588.0,567.0,606.0,562.0,5,4
670,0.79,-2.24,8.55,-0.02,-0.02,0.01,608.0,588.0,566.0,606.0,562.0,5,4
671,0.73,-2.25,8.5,-0.03,-0.01,0.0,608.0,588.0,566.0,607.0,562.0,5,4
672,0.71,-2.2,8.52,-0.03,-0.01,0.01,608.0,588.0,567.0,606.0,562.0,5,4
673,0.77,-2.18,8.54,-0.03,-0.02,0.0,608.0,588.0,567.0,607.0,563.0,5,4
674,0.78,-2.2,8.49,-0.03,-0.02,0.0,608.0,589.0,567.0,607.0,562.0,5,4
675,0.74,-2.2,8.53,-0.03,-0.04,0.01,608.0,588.0,567.0,607.0,562.0,5,4
676,0.81,-2.22,8.57,-0.03,-0.02,0.02,609.0,588.0,567.0,607.0,563.0,5,4
677,0.89,-2.22,8.56,-0.03,-0.03,-0.0,609.0,588.0,567.0,606.0,562.0,5,4
678,0.71,-2.24,8.48,-0.03,0.01,0.01,609.0,588.0,568.0,607.0,563.0,5,4
679,0.8,-2.21,8.48,-0.03,-0.02,0.01,609.0,588.0,568.0,607.0,562.0,5,4
680,0.73,-2.22,8.58,-0.02,-0.01,-0.0,608.0,588.0,568.0,607.0,562.0,5,4
681,0.82,-2.19,8.54,-0.02,-0.05,0.0,608.0,588.0,568.0,607.0,563.0,5,4
682,0.76,-2.24,8.52,-0.02,-0.05,-0.0,607.0,588.0,568.0,607.0,563.0,5,4
683,0.83,-2.2,8.53,-0.03,-0.09,0.01,608.0,588.0,568.0,607.0,563.0,5,4
684,0.86,-2.18,8.51,-0.03,-0.04,0.01,608.0,588.0,568.0,607.0,563.0,5,4
685,0.93,-2.19,8.54,-0.03,-0.02,-0.01,608.0,587.0,568.0,608.0,563.0,5,4
686,0.81,-2.23,8.53,-0.02,-0.02,-0.01,608.0,587.0,568.0,608.0,563.0,5,4
687,0.96,-2.22,8.52,-0.03,-0.05,0.01,608.0,588.0,568.0,607.0,553.0,5,4
688,0.73,-2.16,8.5,-0.03,-0.03,-0.0,609.0,588.0,568.0,607.0,535.0,5,4
689,1.21,-2.25,8.51,-0.03,-0.01,0.02,609.0,582.0,567.0,601.0,504.0,5,4
690,0.57,-2.07,8.66,-0.03,0.06,0.05,609.0,587.0,566.0,604.0,530.0,5,4
691,0.94,-2.33,8.59,-0.04,-0.08,0.01,608.0,588.0,567.0,606.0,557.0,5,4
692,0.74,-2.23,8.51,-0.03,-0.01,0.01,608.0,588.0,568.0,606.0,548.0,5,4
693,0.75,-2.22,8.54,-0.02,0.04,0.01,608.0,588.0,568.0,603.0,468.0,5,4
694,0.99,-2.21,8.5,-0.03,0.09,0.02,608.0,588.0,569.0,593.0,422.0,5,4
695,1.18,-2.38,8.59,-0.05,-0.05,0.02,608.0,589.0,568.0,592.0,402.0,5,4
696,0.47,-2.18,8.66,-0.03,-0.07,0.0,609.0,588.0,568.0,591.0,398.0,5,4
697,0.72,-2.26,8.51,-0.01,-0.09,-0.01,609.0,589.0,569.0,592.0,395.0,5,4
698,0.73,-2.21,8.55,-0.03,-0.05,0.02,608.0,589.0,568.0,591.0,393.0,5,4
699,1.03,-2.26,8.45,-0.02,-0.07,0.0,608.0,589.0,569.0,591.0,400.0,5,4
700,0.97,-2.15,8.58,-0.02,-0.06,0.02,609.0,589.0,569.0,592.0,414.0,5,4
701,0.92,-2.17,8.56,-0.02,-0.01,0.02,608.0,589.0,569.0,596.0,433.0,5,4
702,0.88,-2.19,8.57,-0.03,-0.03,0.0,608.0,589.0,569.0,601.0,453.0,5,4
703,0.8,-2.23,8.49,-0.03,-0.02,0.01,608.0,588.0,569.0,603.0,474.0,5,4
704,0.8,-2.22,8.55,-0.03,-0.04,-0.0,607.0,589.0,570.0,602.0,481.0,5,4
705,0.87,-2.21,8.62,-0.03,-0.03,0.01,608.0,590.0,569.0,601.0,481.0,5,4
706,0.86,-2.18,8.6,-0.03,-0.04,-0.01,608.0,588.0,569.0,603.0,484.0,5,4
707,0.87,-2.21,8.54,-0.03,-0.04,-0.0,608.0,589.0,569.0,602.0,484.0,5,4
708,0.88,-2.12,8.51,-0.03,-0.04,0.0,608.0,589.0,570.0,603.0,485.0,5,4
709,0.87,-2.18,8.5,-0.03,-0.02,0.01,609.0,589.0,569.0,602.0,486.0,5,4
710,0.9,-2.24,8.57,-0.03,-0.01,-0.01,608.0,590.0,570.0,603.0,486.0,5,4
711,0.92,-2.15,8.5,-0.03,-0.04,0.0,609.0,589.0,569.0,603.0,488.0,5,4
712,0.86,-2.18,8.57,-0.03,-0.01,0.01,609.0,589.0,569.0,602.0,487.0,5,4
713,0.93,-2.19,8.54,-0.02,-0.03,0.0,609.0,589.0,569.0,603.0,488.0,5,4
714,0.87,-2.23,8.56,-0.02,-0.02,0.0,609.0,589.0,569.0,603.0,489.0,5,4
715,0.98,-2.19,8.47,-0.03,-0.03,0.0,608.0,589.0,570.0,603.0,489.0,5,4
716,1.0,-2.19,8.54,-0.03,-0.02,0.0,608.0,589.0,570.0,602.0,490.0,5,4
717,0.96,-2.16,8.56,-0.03,-0.02,-0.01,608.0,589.0,569.0,603.0,490.0,5,4
718,0.91,-2.17,8.49,-0.03,-0.01,-0.01,609.0,589.0,569.0,602.0,490.0,5,4
719,0.93,-2.18,8.61,-0.04,-0.02,-0.01,609.0,589.0,569.0,603.0,491.0,5,4
720,0.94,-2.2,8.52,-0.03,-0.01,0.01,608.0,589.0,570.0,603.0,492.0,5,4
721,0.94,-2.17,8.51,-0.03,-0.04,0.0,609.0,589.0,569.0,603.0,492.0,5,4
722,0.91,-2.24,8.57,-0.03,-0.0,0.01,609.0,590.0,569.0,602.0,492.0,5,4
723,1.02,-2.2,8.52,-0.03,-0.03,0.0,609.0,589.0,570.0,603.0,492.0,5,4
724,0.96,-2.19,8.57,-0.03,-0.01,-0.0,609.0,590.0,570.0,603.0,492.0,5,4
725,0.98,-2.16,8.56,-0.03,-0.01,0.0,609.0,588.0,569.0,603.0,493.0,5,4
726,1.0,-2.23,8.55,-0.03,-0.02,0.0,608.0,589.0,569.0,603.0,494.0,5,4
727,0.94,-2.19,8.56,-0.03,-0.04,-0.0,609.0,589.0,570.0,603.0,494.0,5,4
728,0.99,-2.2,8.52,-0.03,-0.05,0.0,610.0,589.0,570.0,604.0,494.0,5,4
729,0.96,-2.17,8.49,-0.03,-0.02,0.01,609.0,589.0,570.0,603.0,494.0,5,4
730,1.07,-2.21,8.53,-0.03,-0.01,0.01,609.0,589.0,570.0,604.0,494.0,5,4
731,1.05,-2.26,8.57,-0.03,-0.04,-0.0,609.0,590.0,569.0,603.0,495.0,5,4
732,1.02,-2.25,8.51,-0.03,-0.02,0.0,609.0,589.0,570.0,604.0,495.0,5,4
733,1.0,-2.23,8.57,-0.03,-0.02,0.0,609.0,589.0,570.0,604.0,496.0,5,4
734,1.04,-2.22,8.52,-0.03,-0.02,0.0,609.0,589.0,569.0,604.0,496.0,5,4
735,1.03,-2.18,8.53,-0.03,-0.03,0.01,608.0,590.0,570.0,604.0,496.0,5,4
736,1.01,-2.21,8.54,-0.03,-0.02,0.01,608.0,590.0,570.0,603.0,497.0,5,4
737,1.02,-2.17,8.52,-0.03,-0.02,0.01,608.0,590.0,570.0,604.0,497.0,5,4
738,1.0,-2.23,8.55,-0.03,-0.02,0.0,609.0,589.0,570.0,604.0,497.0,5,4
739,1.01,-2.18,8.54,-0.03,-0.02,0.01,609.0,590.0,570.0,604.0,497.0,5,4
740,1.03,-2.18,8.52,-0.03,-0.01,0.0,608.0,589.0,570.0,604.0,498.0,5,4
741,1.06,-2.21,8.49,-0.03,-0.01,0.01,608.0,589.0,570.0,604.0,498.0,5,4
742,0.95,-2.2,8.57,-0.03,-0.02,0.01,610.0,591.0,571.0,604.0,498.0,5,4
743,0.97,-2.21,8.5,-0.03,0.01,0.01,608.0,589.0,569.0,604.0,498.0,5,4
744,1.04,-2.25,8.54,-0.03,-0.02,0.0,608.0,589.0,570.0,604.0,499.0,5,4
745,1.1,-2.25,8.55,-0.03,-0.02,-0.0,610.0,589.0,570.0,604.0,499.0,5,4
746,1.0,-2.2,8.57,-0.03,-0.01,0.0,608.0,590.0,570.0,604.0,499.0,5,4
747,1.03,-2.19,8.51,-0.03,-0.02,0.0,609.0,590.0,569.0,604.0,500.0,5,4
748,1.08,-2.24,8.52,-0.03,-0.04,0.0,609.0,590.0,570.0,604.0,500.0,5,4
749,0.98,-2.21,8.54,-0.03,-0.02,0.01,609.0,589.0,570.0,604.0,500.0,5,4
750,1.34,-3.05,8.18,-0.06,-0.11,0.02,602.0,559.0,554.0,589.0,477.0,6,4
751,1.45,-3.22,8.17,-0.03,-0.02,0.03,601.0,559.0,554.0,589.0,477.0,6,4
752,1.3,-3.16,8.22,-0.02,0.04,0.05,601.0,559.0,554.0,589.0,477.0,6,4
753,1.4,-3.1,8.21,-0.01,0.08,0.06,599.0,560.0,554.0,589.0,477.0,6,4
754,1.33,-3.14,8.32,-0.02,-0.04,0.0,602.0,559.0,554.0,589.0,477.0,6,4
755,1.22,-3.08,8.26,-0.01,-0.04,-0.0,600.0,560.0,555.0,589.0,477.0,6,4
756,1.39,-3.17,8.24,-0.01,-0.03,0.03,601.0,560.0,555.0,589.0,478.0,6,4
757,1.31,-3.0,8.2,-0.0,0.04,0.0,601.0,559.0,555.0,588.0,477.0,6,4
758,1.46,-3.21,8.2,-0.04,-0.06,0.03,601.0,560.0,554.0,590.0,477.0,6,4
759,1.32,-3.08,8.25,-0.03,-0.04,-0.0,600.0,559.0,554.0,590.0,477.0,6,4
760,1.34,-3.09,8.23,-0.03,0.09,0.02,601.0,560.0,554.0,589.0,478.0,6,4
761,1.39,-3.13,8.27,-0.04,0.03,0.0,601.0,559.0,554.0,589.0,478.0,6,4
762,1.31,-3.17,8.22,-0.04,-0.03,-0.01,600.0,559.0,554.0,589.0,478.0,6,4
763,1.24,-3.06,8.31,-0.03,-0.02,-0.0,600.0,559.0,554.0,589.0,477.0,6,4
764,1.25,-3.14,8.21,-0.03,-0.03,-0.01,600.0,559.0,554.0,589.0,477.0,6,4
765,1.14,-3.16,8.24,-0.03,0.0,0.0,602.0,559.0,554.0,589.0,477.0,6,4
766,1.38,-3.15,8.23,-0.03,-0.01,-0.0,601.0,559.0,554.0,589.0,478.0,6,4
767,1.29,-3.13,8.21,-0.03,-0.03,-0.02,600.0,558.0,554.0,590.0,478.0,6,4
768,1.17,-3.16,8.23,-0.03,-0.03,-0.01,601.0,559.0,554.0,589.0,477.0,6,4
769,1.44,-3.13,8.26,-0.02,-0.01,-0.0,601.0,559.0,554.0,589.0,477.0,6,4
770,1.25,-3.13,8.33,-0.03,-0.02,-0.0,601.0,559.0,554.0,589.0,478.0,6,4
771,1.35,-3.13,8.23,-0.03,0.04,0.01,601.0,558.0,553.0,589.0,478.0,6,4
772,1.27,-3.14,8.21,-0.04,-0.03,0.0,600.0,559.0,553.0,589.0,478.0,6,4
773,1.25,-3.18,8.3,-0.03,-0.03,0.0,600.0,559.0,554.0,589.0,478.0,6,4
774,1.21,-3.13,8.25,-0.02,-0.01,0.01,601.0,559.0,554.0,589.0,478.0,6,4
775,1.37,-3.14,8.15,-0.03,-0.02,0.01,599.0,559.0,553.0,589.0,479.0,6,4
776,1.27,-3.08,8.24,-0.03,-0.02,0.0,600.0,560.0,553.0,589.0,478.0,6,4
777,1.4,-3.11,8.25,-0.03,0.03,0.02,600.0,560.0,553.0,589.0,478.0,6,4
778,1.38,-3.13,8.22,-0.04,-0.02,0.0,600.0,559.0,553.0,588.0,478.0,6,4
779,1.08,-3.13,8.3,-0.03,-0.02,-0.0,600.0,560.0,553.0,589.0,478.0,6,4
780,1.09,-3.11,8.28,-0.02,0.01,0.01,600.0,558.0,553.0,589.0,478.0,6,4
781,1.38,-3.12,8.2,-0.03,-0.04,0.01,600.0,559.0,553.0,589.0,479.0,6,4
782,1.2,-3.08,8.2,-0.03,-0.01,0.01,601.0,559.0,553.0,589.0,478.0,6,4
783,1.23,-3.13,8.2,-0.03,0.01,0.02,602.0,560.0,553.0,589.0,478.0,6,4
784,1.25,-3.17,8.2,-0.03,-0.01,0.01,601.0,559.0,553.0,589.0,479.0,6,4
785,1.2,-3.14,8.25,-0.03,-0.02,0.01,601.0,559.0,553.0,589.0,479.0,6,4
786,1.18,-3.16,8.25,-0.03,-0.01,0.01,600.0,560.0,554.0,589.0,478.0,6,4
787,1.24,-3.17,8.26,-0.03,-0.0,0.01,600.0,559.0,554.0,589.0,479.0,6,4
788,1.31,-3.12,8.21,-0.03,-0.04,0.01,600.0,559.0,553.0,588.0,479.0,6,4
789,1.2,-3.08,8.25,-0.03,-0.01,0.0,600.0,559.0,553.0,589.0,479.0,6,4
790,1.27,-3.13,8.28,-0.03,-0.02,0.01,600.0,559.0,553.0,589.0,479.0,6,4
791,1.15,-3.11,8.19,-0.03,-0.0,0.01,600.0,559.0,554.0,588.0,479.0,6,4
792,1.18,-3.16,8.28,-0.03,0.02,0.01,600.0,560.0,553.0,589.0,479.0,6,4
793,1.29,-3.16,8.26,-0.03,-0.01,0.01,600.0,559.0,553.0,589.0,479.0,6,4
794,1.12,-3.16,8.25,-0.03,-0.02,0.0,601.0,559.0,553.0,588.0,479.0,6,4
795,1.09,-3.17,8.24,-0.03,-0.0,0.0,601.0,560.0,553.0,589.0,478.0,6,4
796,1.14,-3.09,8.26,-0.03,-0.01,0.0,601.0,559.0,553.0,589.0,479.0,6,4
797,1.13,-3.15,8.16,-0.03,0.0,0.01,600.0,560.0,554.0,589.0,479.0,6,4
798,1.17,-3.19,8.28,-0.03,-0.02,0.01,601.0,559.0,552.0,589.0,480.0,6,4
799,1.13,-3.17,8.23,-0.03,-0.0,0.01,602.0,559.0,553.0,588.0,479.0,6,4
800,1.23,-3.18,8.29,-0.03,0.0,0.01,600.0,559.0,553.0,588.0,479.0,6,4
801,1.21,-3.14,8.25,-0.03,-0.04,0.0,600.0,559.0,554.0,588.0,479.0,6,4
802,1.11,-3.1,8.28,-0.03,-0.04,0.0,601.0,560.0,553.0,589.0,480.0,6,4
803,1.07,-3.16,8.25,-0.02,-0.01,0.01,600.0,559.0,553.0,589.0,479.0,6,4
804,1.25,-3.15,8.23,-0.03,-0.0,0.01,600.0,559.0,553.0,588.0,479.0,6,4
805,1.31,-3.17,8.14,-0.03,-0.02,0.01,601.0,559.0,553.0,589.0,480.0,6,4
806,1.18,-3.13,8.24,-0.03,-0.01,0.01,601.0,559.0,553.0,589.0,480.0,6,4
807,1.17,-3.16,8.25,-0.03,-0.02,0.0,601.0,560.0,553.0,589.0,480.0,6,4
808,1.12,-3.13,8.28,-0.03,-0.0,-0.01,600.0,559.0,554.0,589.0,480.0,6,4
809,1.08,-3.16,8.26,-0.03,-0.02,0.01,601.0,561.0,553.0,589.0,480.0,6,4
810,1.07,-3.17,8.31,-0.03,-0.01,0.01,601.0,560.0,553.0,589.0,480.0,6,4
811,1.16,-3.21,8.22,-0.03,-0.02,0.01,601.0,560.0,553.0,588.0,480.0,6,4
812,1.16,-3.14,8.25,-0.03,-0.03,0.01,600.0,559.0,553.0,589.0,480.0,6,4
813,1.07,-3.11,8.24,-0.03,-0.03,0.0,601.0,559.0,552.0,588.0,480.0,6,4
814,1.1,-3.16,8.31,-0.03,-0.01,0.01,601.0,560.0,553.0,588.0,480.0,6,4
815,1.2,-3.17,8.27,-0.03,-0.0,0.01,600.0,560.0,553.0,588.0,480.0,6,4
816,1.14,-3.14,8.31,-0.03,-0.01,0.01,601.0,559.0,553.0,589.0,480.0,6,4
817,1.19,-3.16,8.21,-0.03,-0.01,0.0,601.0,560.0,553.0,589.0,480.0,6,4
818,1.14,-3.11,8.25,-0.03,-0.01,0.01,601.0,559.0,553.0,589.0,480.0,6,4
819,1.17,-3.14,8.27,-0.03,-0.02,0.01,601.0,560.0,553.0,589.0,480.0,6,4
820,1.18,-3.16,8.27,-0.03,-0.01,0.01,600.0,560.0,554.0,589.0,480.0,6,4
821,1.11,-3.14,8.31,-0.03,-0.01,0.01,600.0,559.0,554.0,589.0,481.0,6,4
822,1.15,-3.12,8.23,-0.03,-0.02,0.01,600.0,560.0,553.0,589.0,481.0,6,4
823,1.16,-3.2,8.26,-0.03,-0.02,-0.0,601.0,560.0,553.0,588.0,480.0,6,4
824,1.13,-3.17,8.25,-0.03,-0.02,0.01,601.0,560.0,554.0,589.0,481.0,6,4
825,1.22,-3.19,8.27,-0.03,-0.02,0.01,601.0,560.0,553.0,589.0,480.0,6,4
826,1.18,-3.13,8.23,-0.03,-0.02,0.0,601.0,560.0,553.0,588.0,480.0,6,4
827,1.13,-3.14,8.28,-0.03,-0.03,-0.0,601.0,561.0,553.0,588.0,481.0,6,4
828,1.12,-3.17,8.21,-0.03,-0.01,0.01,600.0,560.0,554.0,589.0,481.0,6,4
829,1.23,-3.15,8.28,-0.03,-0.01,0.01,601.0,560.0,553.0,588.0,480.0,6,4
830,1.17,-3.17,8.27,-0.03,-0.02,0.01,601.0,560.0,554.0,589.0,480.0,6,4
831,1.13,-3.14,8.23,-0.03,-0.02,0.0,601.0,561.0,554.0,588.0,480.0,6,4
832,1.11,-3.12,8.27,-0.03,-0.01,0.01,600.0,560.0,554.0,589.0,480.0,6,4
833,1.2,-3.15,8.25,-0.03,-0.01,0.01,601.0,559.0,554.0,589.0,481.0,6,4
834,1.12,-3.17,8.24,-0.03,-0.03,0.0,600.0,560.0,554.0,589.0,481.0,6,4
835,1.07,-3.16,8.26,-0.03,-0.01,0.01,602.0,560.0,553.0,589.0,482.0,6,4
836,1.2,-3.16,8.25,-0.03,-0.01,0.01,601.0,561.0,553.0,589.0,481.0,6,4
837,1.15,-3.17,8.24,-0.03,-0.02,0.0,601.0,560.0,553.0,588.0,482.0,6,4
838,1.14,-3.16,8.25,-0.03,-0.02,0.01,601.0,560.0,553.0,589.0,481.0,6,4
839,1.12,-3.2,8.32,-0.03,-0.01,0.01,601.0,560.0,553.0,589.0,481.0,6,4
840,1.18,-3.16,8.26,-0.03,-0.01,0.01,601.0,561.0,554.0,589.0,482.0,6,4
841,1.24,-3.16,8.25,-0.03,-0.02,0.0,601.0,560.0,554.0,589.0,481.0,6,4
842,1.06,-3.2,8.21,-0.03,-0.03,0.01,601.0,560.0,554.0,589.0,481.0,6,4
843,1.17,-3.14,8.24,-0.03,-0.02,0.01,600.0,560.0,553.0,589.0,482.0,6,4
844,1.15,-3.14,8.25,-0.03,-0.02,0.0,601.0,560.0,553.0,588.0,481.0,6,4
845,1.09,-3.15,8.28,-0.03,-0.01,0.01,601.0,561.0,553.0,589.0,482.0,6,4
846,1.18,-3.18,8.27,-0.03,-0.01,0.01,600.0,560.0,554.0,589.0,482.0,6,4
847,1.18,-3.16,8.32,-0.03,-0.02,-0.0,601.0,560.0,553.0,588.0,482.0,6,4
848,1.08,-3.15,8.28,-0.03,-0.04,0.0,601.0,561.0,553.0,589.0,482.0,6,4
849,1.14,-3.14,8.19,-0.03,-0.01,0.01,601.0,561.0,554.0,589.0,482.0,6,4
850,1.19,-3.17,8.26,-0.03,-0.01,0.01,601.0,561.0,554.0,589.0,482.0,6,4
851,1.22,-3.15,8.27,-0.03,-0.03,0.0,601.0,561.0,553.0,588.0,482.0,6,4
852,1.06,-3.16,8.26,-0.03,-0.02,0.0,601.0,561.0,554.0,588.0,483.0,6,4
853,1.16,-3.17,8.25,-0.03,-0.0,0.01,601.0,561.0,554.0,589.0,482.0,6,4
854,1.13,-3.17,8.29,-0.03,-0.01,0.01,600.0,561.0,554.0,589.0,482.0,6,4
855,1.15,-3.19,8.29,-0.03,-0.01,0.0,600.0,560.0,554.0,589.0,483.0,6,4
856,1.12,-3.14,8.24,-0.03,-0.02,0.01,601.0,561.0,554.0,589.0,482.0,6,4
857,1.14,-3.17,8.27,-0.03,-0.03,-0.0,600.0,561.0,554.0,589.0,483.0,6,4
858,1.07,-3.19,8.28,-0.03,-0.02,0.0,601.0,560.0,554.0,589.0,482.0,6,4
859,1.14,-3.15,8.21,-0.03,-0.01,0.01,600.0,561.0,554.0,589.0,483.0,6,4
860,1.22,-3.14,8.27,-0.03,-0.02,0.01,601.0,561.0,554.0,589.0,482.0,6,4
861,1.13,-3.15,8.26,-0.03,-0.03,-0.0,601.0,561.0,554.0,589.0,482.0,6,4
862,1.07,-3.15,8.26,-0.03,-0.02,-0.0,601.0,561.0,554.0,589.0,482.0,6,4
863,1.09,-3.17,8.29,-0.03,-0.01,0.0,601.0,561.0,554.0,589.0,483.0,6,4
864,1.15,-3.15,8.28,-0.03,0.01,0.01,600.0,561.0,554.0,589.0,483.0,6,4
865,1.21,-3.18,8.24,-0.03,-0.02,0.01,601.0,561.0,554.0,589.0,483.0,6,4
866,1.16,-3.1,8.23,-0.03,-0.03,-0.0,600.0,561.0,554.0,589.0,483.0,6,4
867,1.06,-3.13,8.22,-0.03,-0.02,0.0,600.0,561.0,554.0,590.0,483.0,6,4
868,1.18,-3.15,8.27,-0.03,-0.01,0.01,601.0,561.0,553.0,589.0,482.0,6,4
869,1.25,-3.18,8.29,-0.03,-0.01,0.01,601.0,562.0,554.0,589.0,483.0,6,4
870,1.18,-3.15,8.24,-0.03,-0.02,0.01,601.0,561.0,554.0,589.0,483.0,6,4
871,1.13,-3.17,8.27,-0.03,-0.02,0.01,601.0,562.0,554.0,589.0,484.0,6,4
872,1.13,-3.14,8.28,-0.03,-0.02,0.0,601.0,561.0,554.0,590.0,483.0,6,4
873,1.14,-3.15,8.22,-0.03,-0.02,0.0,601.0,561.0,554.0,589.0,483.0,6,4
874,1.16,-3.16,8.25,-0.03,-0.01,0.01,601.0,562.0,555.0,589.0,484.0,6,4
875,1.16,-3.17,8.25,-0.03,-0.02,0.0,600.0,561.0,555.0,589.0,484.0,6,4
876,1.17,-3.18,8.25,-0.03,-0.02,0.01,602.0,561.0,553.0,589.0,484.0,6,4
877,1.14,-3.18,8.23,-0.03,-0.02,0.01,600.0,561.0,555.0,589.0,484.0,6,4
878,1.15,-3.14,8.32,-0.03,-0.02,0.01,601.0,561.0,554.0,590.0,484.0,6,4
879,1.24,-3.13,8.25,-0.03,-0.02,0.01,601.0,562.0,554.0,589.0,483.0,6,4
880,1.13,-3.14,8.24,-0.03,-0.02,0.0,600.0,561.0,554.0,589.0,484.0,6,4
881,1.09,-3.16,8.27,-0.03,-0.02,0.01,601.0,562.0,555.0,589.0,484.0,6,4
882,1.15,-3.17,8.32,-0.03,-0.01,0.01,600.0,562.0,554.0,589.0,484.0,6,4
883,1.17,-3.18,8.23,-0.03,-0.01,0.01,600.0,561.0,554.0,589.0,484.0,6,4
884,1.24,-3.15,8.23,-0.03,-0.03,0.0,601.0,561.0,554.0,589.0,484.0,6,4
885,1.12,-3.17,8.31,-0.03,-0.02,0.0,600.0,563.0,554.0,589.0,484.0,6,4
886,1.1,-3.16,8.24,-0.03,-0.01,0.01,601.0,562.0,554.0,589.0,484.0,6,4
887,1.14,-3.15,8.23,-0.03,-0.0,0.01,601.0,563.0,554.0,589.0,483.0,6,4
888,1.2,-3.15,8.29,-0.03,-0.02,0.0,601.0,563.0,554.0,589.0,484.0,6,4
889,1.16,-3.18,8.29,-0.03,-0.03,-0.0,601.0,563.0,554.0,589.0,484.0,6,4
890,1.11,-3.14,8.23,-0.03,-0.01,0.01,601.0,563.0,555.0,589.0,484.0,6,4
891,1.16,-3.14,8.25,-0.03,-0.0,0.01,601.0,562.0,554.0,589.0,484.0,6,4
892,1.26,-3.17,8.24,-0.03,-0.02,0.01,601.0,562.0,555.0,589.0,484.0,6,4
893,1.18,-3.15,8.25,-0.03,-0.02,0.0,601.0,563.0,555.0,589.0,485.0,6,4
894,1.15,-3.13,8.24,-0.03,-0.02,0.0,601.0,562.0,555.0,590.0,485.0,6,4
895,1.09,-3.15,8.26,-0.03,-0.01,0.0,601.0,562.0,554.0,589.0,485.0,6,4
896,1.21,-3.17,8.26,-0.03,-0.01,0.01,601.0,562.0,554.0,589.0,484.0,6,4
897,1.13,-3.13,8.25,-0.03,-0.02,0.0,602.0,563.0,555.0,589.0,485.0,6,4
898,1.17,-3.13,8.27,-0.03,-0.03,0.01,601.0,563.0,555.0,589.0,484.0,6,4
899,1.21,-3.13,8.25,-0.03,-0.02,0.0,601.0,563.0,554.0,590.0,485.0,6,4
900,2.18,-3.16,8.14,-0.03,-0.11,0.0,603.0,566.0,556.0,590.0,492.0,7,4
901,2.11,-3.19,8.1,-0.02,-0.04,0.01,602.0,565.0,556.0,590.0,492.0,7,4
902,2.4,-3.0,8.1,-0.03,-0.03,0.01,602.0,567.0,556.0,590.0,492.0,7,4
903,2.13,-3.21,8.1,-0.03,0.05,0.03,601.0,566.0,556.0,590.0,493.0,7,4
904,2.23,-3.09,8.05,-0.03,-0.02,-0.02,603.0,566.0,556.0,589.0,494.0,7,4
905,2.17,-3.05,8.09,-0.03,0.02,0.03,602.0,565.0,556.0,590.0,493.0,7,4
906,2.2,-3.16,8.1,-0.04,-0.06,0.0,602.0,565.0,556.0,590.0,494.0,7,4
907,2.19,-3.04,8.09,-0.02,0.03,-0.0,603.0,565.0,556.0,590.0,494.0,7,4
908,2.4,-3.13,7.99,-0.04,0.02,0.01,603.0,566.0,556.0,590.0,494.0,7,4
909,2.13,-3.19,8.11,-0.04,0.08,-0.0,602.0,566.0,556.0,590.0,496.0,7,4
910,2.08,-3.17,8.12,-0.04,0.0,-0.01,602.0,565.0,556.0,590.0,496.0,7,4
911,2.1,-3.12,8.06,-0.03,0.05,0.02,602.0,566.0,556.0,590.0,496.0,7,4
912,2.28,-3.1,8.11,-0.04,-0.01,0.03,602.0,566.0,557.0,590.0,496.0,7,4
913,1.9,-3.15,8.08,-0.04,0.07,0.04,602.0,565.0,556.0,591.0,496.0,7,4
914,2.08,-3.18,8.11,-0.05,0.03,0.0,602.0,566.0,556.0,589.0,496.0,7,4
915,1.91,-3.11,8.1,-0.05,0.04,0.02,603.0,566.0,557.0,591.0,497.0,7,4
916,2.05,-3.23,8.13,-0.06,0.12,0.03,603.0,567.0,557.0,590.0,497.0,7,4
917,1.73,-3.22,8.18,-0.04,0.0,-0.01,602.0,566.0,557.0,590.0,497.0,7,4
918,1.8,-3.19,8.18,-0.01,-0.06,-0.01,602.0,567.0,556.0,591.0,498.0,7,4
919,2.37,-3.19,8.0,0.01,-0.18,-0.07,603.0,566.0,557.0,591.0,498.0,7,4
920,1.75,-3.16,8.04,-0.0,-0.04,0.03,603.0,566.0,557.0,591.0,498.0,7,4
921,2.05,-3.12,8.17,-0.02,-0.07,0.03,602.0,566.0,556.0,591.0,498.0,7,4
922,2.1,-3.18,8.15,-0.01,-0.18,-0.04,603.0,567.0,557.0,591.0,498.0,7,4
923,2.06,-3.12,8.01,0.01,-0.04,0.05,603.0,566.0,557.0,591.0,499.0,7,4
924,2.3,-3.08,8.09,-0.01,-0.07,0.06,602.0,565.0,557.0,590.0,498.0,7,4
925,2.25,-3.06,8.07,-0.02,-0.0,0.01,602.0,565.0,557.0,591.0,498.0,7,4
926,2.16,-3.08,8.14,-0.03,0.01,-0.01,603.0,566.0,557.0,590.0,499.0,7,4
927,2.15,-3.13,8.14,-0.03,-0.04,-0.01,602.0,567.0,557.0,591.0,498.0,7,4
928,2.19,-3.16,8.08,-0.03,0.01,0.0,602.0,566.0,557.0,590.0,498.0,7,4
929,2.23,-3.12,8.09,-0.05,0.01,0.0,603.0,566.0,556.0,591.0,499.0,7,4
930,2.04,-3.15,8.09,-0.04,-0.02,-0.01,602.0,567.0,557.0,590.0,499.0,7,4
931,2.08,-3.1,8.08,-0.02,-0.06,0.0,603.0,566.0,557.0,591.0,499.0,7,4
932,2.32,-3.17,8.08,-0.03,-0.09,0.0,603.0,566.0,557.0,590.0,499.0,7,4
933,2.08,-3.13,8.04,-0.03,0.03,0.0,603.0,567.0,556.0,590.0,499.0,7,4
934,2.29,-3.14,8.12,-0.03,0.0,-0.01,602.0,566.0,557.0,590.0,499.0,7,4
935,2.09,-3.17,8.12,-0.03,-0.02,-0.0,603.0,567.0,557.0,590.0,499.0,7,4
936,2.2,-3.2,8.04,-0.04,-0.08,-0.01,603.0,566.0,556.0,591.0,499.0,7,4
937,2.22,-3.13,8.02,-0.03,0.04,0.03,603.0,566.0,557.0,590.0,499.0,7,4
938,2.24,-3.21,8.15,-0.03,-0.02,0.01,602.0,566.0,556.0,591.0,499.0,7,4
939,2.03,-3.22,8.08,-0.03,-0.0,0.0,602.0,567.0,557.0,591.0,500.0,7,4
940,2.18,-3.12,8.1,-0.04,-0.03,-0.0,602.0,566.0,558.0,591.0,500.0,7,4
941,2.3,-3.15,8.09,-0.04,-0.09,-0.02,602.0,567.0,557.0,590.0,500.0,7,4
942,2.29,-3.16,8.1,-0.03,-0.02,0.02,603.0,566.0,556.0,590.0,500.0,7,4
943,2.18,-3.18,8.14,-0.03,0.03,0.0,602.0,566.0,556.0,590.0,501.0,7,4
944,2.27,-3.14,8.09,-0.03,0.03,-0.0,602.0,567.0,557.0,590.0,501.0,7,4
945,2.07,-3.24,8.08,-0.04,0.03,0.01,603.0,566.0,557.0,590.0,501.0,7,4
946,2.24,-3.16,8.04,-0.03,-0.04,0.0,603.0,567.0,557.0,590.0,500.0,7,4
947,2.14,-3.18,8.1,-0.03,-0.03,0.01,602.0,566.0,557.0,590.0,500.0,7,4
948,2.15,-3.22,8.12,-0.02,0.02,0.0,602.0,567.0,557.0,590.0,501.0,7,4
949,2.24,-3.12,8.12,-0.03,-0.01,0.02,603.0,566.0,557.0,590.0,501.0,7,4
950,2.21,-3.2,8.11,-0.03,0.03,0.01,602.0,567.0,557.0,590.0,501.0,7,4
951,2.12,-3.21,8.08,-0.03,-0.0,-0.0,603.0,566.0,557.0,591.0,501.0,7,4
952,2.11,-3.15,8.15,-0.02,0.0,0.02,603.0,566.0,557.0,590.0,501.0,7,4
953,2.19,-3.2,8.15,-0.04,-0.01,0.01,602.0,566.0,558.0,590.0,502.0,7,4
954,2.11,-3.14,8.12,-0.03,-0.05,0.01,602.0,566.0,557.0,590.0,501.0,7,4
955,2.12,-3.22,8.07,-0.03,-0.08,0.02,602.0,566.0,557.0,590.0,502.0,7,4
956,2.23,-3.15,8.12,-0.02,-0.01,0.03,603.0,566.0,557.0,589.0,501.0,7,4
957,2.16,-3.21,8.04,-0.02,-0.01,-0.01,603.0,565.0,557.0,590.0,501.0,7,4
958,2.18,-3.2,8.11,-0.03,0.01,-0.01,603.0,566.0,557.0,590.0,502.0,7,4
959,2.27,-3.13,8.06,-0.03,-0.02,-0.01,602.0,567.0,557.0,590.0,501.0,7,4
960,2.12,-3.15,8.11,-0.03,-0.01,0.01,603.0,566.0,557.0,590.0,502.0,7,4
961,2.18,-3.18,8.11,-0.03,0.0,0.01,603.0,567.0,557.0,591.0,502.0,7,4
962,2.11,-3.13,8.07,-0.03,0.01,0.01,602.0,566.0,557.0,590.0,503.0,7,4
963,2.15,-3.17,8.11,-0.03,-0.01,-0.0,602.0,567.0,557.0,590.0,503.0,7,4
964,2.22,-3.18,8.12,-0.03,-0.05,0.0,602.0,566.0,557.0,590.0,502.0,7,4
965,2.2,-3.17,8.03,-0.03,-0.03,0.0,603.0,566.0,557.0,590.0,503.0,7,4
966,2.18,-3.15,8.1,-0.03,-0.02,-0.01,603.0,567.0,557.0,590.0,503.0,7,4
967,2.1,-3.23,8.13,-0.03,0.0,-0.0,602.0,566.0,557.0,591.0,503.0,7,4
968,2.22,-3.13,8.15,-0.02,-0.01,0.01,603.0,566.0,557.0,591.0,503.0,7,4
969,2.16,-3.23,8.12,-0.03,-0.03,0.02,602.0,567.0,557.0,591.0,503.0,7,4
970,2.21,-3.18,8.13,-0.03,-0.03,0.02,602.0,566.0,557.0,590.0,503.0,7,4
971,2.14,-3.13,8.07,-0.03,-0.02,0.01,603.0,566.0,557.0,591.0,503.0,7,4
972,2.28,-3.16,8.1,-0.03,0.01,0.01,603.0,566.0,557.0,590.0,504.0,7,4
973,2.15,-3.19,8.09,-0.03,-0.02,0.01,603.0,566.0,557.0,591.0,504.0,7,4
974,2.16,-3.17,8.12,-0.03,0.04,0.0,602.0,566.0,557.0,590.0,504.0,7,4
975,2.19,-3.14,8.13,-0.03,-0.01,-0.0,603.0,566.0,557.0,590.0,504.0,7,4
976,2.14,-3.15,8.09,-0.03,-0.02,0.0,602.0,566.0,557.0,591.0,504.0,7,4
977,2.13,-3.19,8.06,-0.03,-0.02,0.01,603.0,566.0,557.0,591.0,503.0,7,4
978,2.16,-3.16,8.03,-0.03,-0.01,0.01,603.0,567.0,557.0,591.0,503.0,7,4
979,2.19,-3.15,8.01,-0.03,0.01,-0.0,602.0,566.0,557.0,591.0,504.0,7,4
980,2.13,-3.22,8.1,-0.03,-0.01,-0.01,602.0,566.0,557.0,590.0,504.0,7,4
981,2.14,-3.14,8.09,-0.03,0.01,0.0,603.0,566.0,557.0,590.0,505.0,7,4
982,2.08,-3.2,8.09,-0.03,-0.03,-0.01,603.0,566.0,557.0,590.0,505.0,7,4
983,2.11,-3.11,8.12,-0.03,-0.06,0.01,603.0,566.0,557.0,590.0,505.0,7,4
984,2.11,-3.19,8.09,-0.02,-0.05,0.02,603.0,567.0,557.0,590.0,504.0,7,4
985,2.2,-3.16,8.16,-0.02,-0.02,0.0,602.0,567.0,557.0,590.0,504.0,7,4
986,2.2,-3.2,8.06,-0.02,-0.01,-0.02,604.0,567.0,557.0,590.0,505.0,7,4
987,2.16,-3.18,8.11,-0.03,0.01,0.0,602.0,567.0,557.0,590.0,504.0,7,4
988,2.19,-3.15,8.09,-0.03,-0.01,0.01,602.0,567.0,558.0,591.0,505.0,7,4
989,2.25,-3.16,8.1,-0.03,-0.03,0.01,602.0,567.0,557.0,590.0,505.0,7,4
990,2.17,-3.15,8.13,-0.03,-0.01,0.01,603.0,566.0,557.0,591.0,505.0,7,4
991,2.17,-3.15,8.06,-0.02,-0.02,-0.0,603.0,566.0,557.0,590.0,505.0,7,4
992,2.15,-3.19,8.11,-0.03,-0.01,0.0,602.0,566.0,557.0,590.0,505.0,7,4
993,2.1,-3.18,8.07,-0.03,-0.01,0.01,602.0,566.0,557.0,590.0,506.0,7,4
994,2.14,-3.09,8.06,-0.03,-0.01,0.01,603.0,567.0,557.0,590.0,505.0,7,4
995,2.23,-3.17,8.09,-0.03,-0.01,-0.0,603.0,567.0,558.0,591.0,505.0,7,4
996,2.12,-3.16,8.1,-0.03,-0.02,-0.01,603.0,567.0,557.0,591.0,505.0,7,4
997,2.08,-3.15,8.1,-0.03,0.0,0.0,602.0,567.0,557.0,590.0,506.0,7,4
998,2.05,-3.16,8.08,-0.03,-0.0,0.0,603.0,566.0,557.0,591.0,506.0,7,4
999,2.07,-3.16,8.13,-0.03,-0.02,0.02,603.0,567.0,557.0,590.0,506.0,7,4
1000,2.14,-3.12,8.11,-0.02,-0.05,0.03,603.0,567.0,557.0,591.0,505.0,7,4
1001,2.13,-3.22,8.08,-0.02,-0.04,0.0,602.0,567.0,557.0,590.0,506.0,7,4
1002,2.21,-3.19,8.16,-0.02,-0.01,-0.0,602.0,567.0,557.0,590.0,506.0,7,4
1003,2.21,-3.18,8.12,-0.03,-0.0,-0.01,602.0,566.0,557.0,591.0,506.0,7,4
1004,2.13,-3.17,8.07,-0.03,-0.01,-0.0,603.0,566.0,557.0,591.0,506.0,7,4
1005,2.12,-3.17,8.16,-0.03,-0.02,0.02,603.0,567.0,557.0,591.0,507.0,7,4
1006,2.19,-3.14,8.11,-0.03,-0.03,0.02,603.0,567.0,557.0,590.0,507.0,7,4
1007,2.2,-3.13,8.06,-0.02,-0.01,0.01,603.0,566.0,558.0,591.0,507.0,7,4
1008,2.19,-3.16,8.05,-0.03,-0.01,0.0,603.0,566.0,557.0,591.0,507.0,7,4
1009,2.15,-3.16,8.12,-0.03,-0.01,0.0,602.0,567.0,558.0,591.0,507.0,7,4
1010,2.12,-3.16,8.06,-0.03,-0.04,0.0,602.0,566.0,557.0,591.0,507.0,7,4
1011,2.15,-3.15,8.11,-0.03,-0.03,0.01,603.0,567.0,557.0,591.0,508.0,7,4
1012,2.16,-3.17,8.1,-0.03,0.0,0.0,603.0,567.0,558.0,590.0,506.0,7,4
1013,2.15,-3.15,8.12,-0.03,0.01,0.0,602.0,566.0,557.0,590.0,507.0,7,4
1014,2.19,-3.17,8.1,-0.03,0.01,-0.0,603.0,567.0,558.0,591.0,507.0,7,4
1015,2.11,-3.18,8.06,-0.03,-0.01,0.0,603.0,567.0,557.0,590.0,508.0,7,4
1016,2.08,-3.18,8.09,-0.03,-0.03,0.02,603.0,567.0,558.0,591.0,507.0,7,4
1017,2.06,-3.17,8.17,-0.02,-0.03,0.03,603.0,567.0,558.0,591.0,508.0,7,4
1018,2.31,-3.2,8.09,-0.02,-0.05,0.0,602.0,565.0,558.0,590.0,508.0,7,4
1019,2.12,-3.19,8.11,-0.03,0.0,-0.0,604.0,567.0,557.0,590.0,508.0,7,4
1020,2.2,-3.14,8.05,-0.03,-0.02,0.01,602.0,566.0,558.0,590.0,508.0,7,4
1021,2.15,-3.16,8.11,-0.03,0.01,0.0,602.0,566.0,558.0,591.0,508.0,7,4
1022,2.18,-3.17,8.11,-0.03,-0.0,-0.0,603.0,567.0,558.0,591.0,508.0,7,4
1023,2.09,-3.14,8.05,-0.03,-0.01,0.01,603.0,566.0,558.0,591.0,509.0,7,4
1024,2.14,-3.15,8.12,-0.03,-0.05,0.01,603.0,567.0,558.0,591.0,509.0,7,4
1025,2.21,-3.17,8.14,-0.02,-0.06,0.02,602.0,566.0,557.0,591.0,509.0,7,4
1026,2.25,-3.14,8.14,-0.02,-0.01,0.01,602.0,566.0,557.0,591.0,509.0,7,4
1027,2.19,-3.2,8.07,-0.03,-0.01,-0.01,603.0,567.0,558.0,590.0,509.0,7,4
1028,2.08,-3.18,8.09,-0.03,-0.0,0.0,602.0,567.0,558.0,591.0,509.0,7,4
1029,2.15,-3.15,8.11,-0.03,-0.01,0.01,602.0,567.0,558.0,590.0,509.0,7,4
1030,2.17,-3.17,8.13,-0.03,-0.02,0.02,603.0,567.0,558.0,591.0,509.0,7,4
1031,2.18,-3.17,8.04,-0.03,-0.03,0.01,603.0,567.0,558.0,590.0,509.0,7,4
1032,2.11,-3.14,8.12,-0.03,-0.0,0.0,604.0,566.0,558.0,590.0,509.0,7,4
1033,2.21,-3.22,8.13,-0.03,-0.01,0.01,603.0,567.0,558.0,590.0,509.0,7,4
1034,2.1,-3.19,8.11,-0.03,-0.02,0.01,602.0,566.0,557.0,591.0,509.0,7,4
1035,2.18,-3.14,8.14,-0.03,-0.01,0.01,602.0,567.0,558.0,591.0,509.0,7,4
1036,2.18,-3.21,8.17,-0.03,0.0,-0.01,603.0,567.0,558.0,591.0,510.0,7,4
1037,2.17,-3.17,8.11,-0.03,0.01,0.01,602.0,567.0,558.0,591.0,510.0,7,4
1038,2.08,-3.16,8.11,-0.03,-0.0,0.0,603.0,566.0,558.0,591.0,510.0,7,4
1039,2.09,-3.15,8.09,-0.03,-0.03,0.01,603.0,566.0,557.0,591.0,510.0,7,4
1040,2.11,-3.21,8.09,-0.03,-0.05,0.03,603.0,566.0,557.0,590.0,511.0,7,4
1041,2.21,-3.18,8.14,-0.02,-0.04,0.01,603.0,567.0,558.0,591.0,510.0,7,4
1042,2.14,-3.17,8.12,-0.02,-0.03,-0.01,604.0,567.0,557.0,590.0,511.0,7,4
1043,2.2,-3.2,8.14,-0.03,-0.01,0.01,602.0,568.0,558.0,591.0,510.0,7,4
1044,2.15,-3.19,8.09,-0.03,0.01,-0.0,601.0,567.0,558.0,591.0,511.0,7,4
1045,2.14,-3.17,8.1,-0.03,0.0,0.0,603.0,567.0,558.0,591.0,511.0,7,4
1046,2.15,-3.17,8.12,-0.03,-0.01,0.01,603.0,567.0,558.0,591.0,510.0,7,4
1047,2.1,-3.16,8.15,-0.03,-0.02,0.01,603.0,566.0,558.0,590.0,511.0,7,4
1048,2.19,-3.2,8.13,-0.03,-0.03,0.01,602.0,567.0,558.0,591.0,511.0,7,4
1049,2.21,-3.16,8.06,-0.02,-0.01,0.0,601.0,567.0,558.0,591.0,510.0,7,4
1050,2.27,-3.16,8.06,-0.03,-0.02,0.0,603.0,567.0,559.0,591.0,514.0,8,4
1051,2.22,-3.16,8.05,-0.03,-0.03,0.01,603.0,567.0,558.0,591.0,514.0,8,4
1052,2.24,-3.22,8.15,-0.03,-0.01,0.01,603.0,568.0,559.0,591.0,514.0,8,4
1053,2.36,-3.15,8.11,-0.03,-0.04,-0.0,602.0,567.0,559.0,591.0,513.0,8,4
1054,2.23,-3.18,8.11,-0.03,-0.07,0.0,603.0,568.0,558.0,591.0,514.0,8,4
1055,2.36,-3.17,8.05,-0.02,-0.0,0.03,602.0,567.0,559.0,591.0,513.0,8,4
1056,2.43,-3.11,8.02,-0.03,0.01,0.01,602.0,568.0,558.0,592.0,514.0,8,4
1057,2.18,-3.25,8.12,-0.03,0.02,0.0,603.0,567.0,559.0,591.0,514.0,8,4
1058,2.22,-3.19,8.02,-0.03,0.02,0.02,602.0,567.0,559.0,590.0,514.0,8,4
1059,2.37,-3.17,8.11,-0.03,-0.05,0.02,602.0,568.0,559.0,591.0,513.0,8,4
1060,2.32,-3.16,8.13,-0.03,0.02,0.01,602.0,568.0,559.0,591.0,514.0,8,4
1061,2.25,-3.13,8.09,-0.04,0.02,-0.03,603.0,568.0,559.0,591.0,514.0,8,4
1062,2.14,-3.25,8.13,-0.03,0.01,-0.0,603.0,567.0,559.0,591.0,514.0,8,4
1063,2.24,-3.15,8.05,-0.02,-0.09,-0.01,603.0,568.0,558.0,591.0,514.0,8,4
1064,2.38,-3.14,8.06,-0.02,-0.06,0.02,603.0,567.0,559.0,591.0,513.0,8,4
1065,2.24,-3.19,8.11,-0.02,-0.03,0.02,603.0,568.0,559.0,592.0,514.0,8,4
1066,2.28,-3.19,8.15,-0.02,-0.06,0.02,602.0,567.0,559.0,591.0,515.0,8,4
1067,2.42,-3.12,8.09,-0.02,-0.05,0.01,603.0,567.0,559.0,591.0,514.0,8,4
1068,2.35,-3.16,8.07,-0.03,-0.03,0.01,602.0,567.0,559.0,591.0,514.0,8,4
1069,2.28,-3.17,8.13,-0.03,0.01,0.0,603.0,568.0,559.0,591.0,515.0,8,4
1070,2.3,-3.12,8.06,-0.03,0.0,-0.0,602.0,568.0,559.0,591.0,515.0,8,4
1071,2.34,-3.18,8.04,-0.03,-0.0,0.01,603.0,567.0,559.0,591.0,515.0,8,4
1072,2.35,-3.14,8.04,-0.04,-0.0,-0.0,602.0,568.0,559.0,591.0,515.0,8,4
1073,2.23,-3.21,8.14,-0.04,-0.01,-0.0,603.0,568.0,559.0,591.0,514.0,8,4
1074,2.26,-3.14,8.02,-0.03,-0.0,0.0,603.0,567.0,559.0,591.0,514.0,8,4
1075,2.28,-3.14,8.1,-0.03,-0.02,0.0,603.0,568.0,559.0,591.0,514.0,8,4
1076,2.27,-3.17,8.07,-0.03,0.01,0.01,603.0,568.0,559.0,591.0,514.0,8,4
1077,2.31,-3.23,8.05,-0.03,-0.01,0.01,603.0,567.0,559.0,591.0,515.0,8,4
1078,2.28,-3.12,8.11,-0.04,0.0,0.01,603.0,568.0,559.0,591.0,514.0,8,4
1079,2.27,-3.16,8.09,-0.04,0.01,0.01,603.0,568.0,559.0,592.0,515.0,8,4
1080,2.22,-3.15,8.09,-0.03,-0.01,-0.0,603.0,568.0,559.0,591.0,515.0,8,4
1081,2.21,-3.22,8.06,-0.03,-0.03,0.01,602.0,568.0,559.0,591.0,515.0,8,4
1082,2.17,-3.15,8.1,-0.03,-0.03,0.01,603.0,568.0,559.0,591.0,515.0,8,4
1083,2.27,-3.15,8.07,-0.03,-0.03,0.01,603.0,568.0,559.0,591.0,515.0,8,4
1084,2.22,-3.16,8.04,-0.03,-0.03,0.01,603.0,568.0,559.0,591.0,515.0,8,4
1085,2.25,-3.19,8.05,-0.03,-0.01,0.01,603.0,567.0,559.0,591.0,516.0,8,4
1086,2.3,-3.18,8.01,-0.03,-0.02,0.0,602.0,568.0,559.0,591.0,515.0,8,4
1087,2.31,-3.2,8.13,-0.03,-0.02,0.01,603.0,567.0,559.0,592.0,515.0,8,4
1088,2.28,-3.19,8.06,-0.03,0.0,0.0,602.0,567.0,560.0,591.0,515.0,8,4
1089,2.35,-3.16,8.01,-0.03,-0.0,0.01,603.0,568.0,559.0,591.0,516.0,8,4
1090,2.18,-3.14,8.12,-0.03,0.0,-0.0,603.0,567.0,559.0,590.0,514.0,8,4
1091,2.24,-3.2,8.08,-0.03,0.01,-0.01,603.0,567.0,559.0,591.0,515.0,8,4
1092,2.13,-3.18,8.07,-0.03,-0.01,0.0,603.0,567.0,559.0,592.0,515.0,8,4
1093,2.23,-3.17,8.08,-0.03,-0.02,0.01,603.0,567.0,559.0,591.0,516.0,8,4
1094,2.21,-3.18,8.16,-0.02,-0.03,0.01,603.0,567.0,559.0,591.0,516.0,8,4
1095,2.19,-3.18,8.09,-0.03,-0.02,0.01,603.0,567.0,559.0,591.0,515.0,8,4
1096,2.22,-3.17,8.09,-0.03,-0.03,0.01,601.0,568.0,559.0,592.0,516.0,8,4
1097,2.15,-3.2,8.08,-0.03,-0.01,0.01,603.0,568.0,559.0,591.0,515.0,8,4
1098,2.26,-3.17,8.04,-0.03,-0.0,0.01,603.0,568.0,559.0,591.0,516.0,8,4
1099,2.24,-3.16,8.14,-0.03,0.01,-0.0,603.0,568.0,559.0,591.0,516.0,8,4
1100,2.34,-3.19,8.07,-0.03,-0.04,-0.01,603.0,568.0,559.0,591.0,516.0,8,4
1101,2.32,-3.14,8.13,-0.03,-0.04,0.0,603.0,568.0,559.0,591.0,516.0,8,4
1102,2.11,-3.16,8.07,-0.03,0.0,0.0,603.0,568.0,559.0,591.0,516.0,8,4
1103,2.17,-3.22,8.12,-0.03,-0.01,-0.0,603.0,567.0,559.0,591.0,516.0,8,4
1104,2.23,-3.22,8.13,-0.03,-0.01,0.01,603.0,567.0,559.0,591.0,516.0,8,4
1105,2.21,-3.16,8.05,-0.03,-0.03,-0.0,603.0,568.0,559.0,591.0,516.0,8,4
1106,2.15,-3.1,8.14,-0.03,-0.02,0.0,603.0,568.0,559.0,591.0,516.0,8,4
1107,2.21,-3.17,8.08,-0.03,-0.01,0.01,603.0,568.0,559.0,591.0,516.0,8,4
1108,2.22,-3.14,8.1,-0.03,-0.0,0.01,603.0,567.0,559.0,591.0,516.0,8,4
1109,2.21,-3.19,8.09,-0.03,-0.01,0.01,603.0,568.0,559.0,591.0,516.0,8,4
1110,2.15,-3.15,8.13,-0.03,-0.01,0.01,603.0,567.0,559.0,592.0,516.0,8,4
1111,2.13,-3.12,8.03,-0.03,-0.0,0.0,604.0,567.0,559.0,591.0,516.0,8,4
1112,2.25,-3.18,8.09,-0.03,-0.02,0.0,603.0,566.0,559.0,591.0,516.0,8,4
1113,2.2,-3.18,8.08,-0.03,-0.01,0.01,604.0,568.0,559.0,591.0,516.0,8,4
1114,2.15,-3.16,8.08,-0.03,-0.02,0.01,603.0,568.0,559.0,591.0,517.0,8,4
1115,2.27,-3.16,8.1,-0.03,-0.02,0.01,603.0,568.0,559.0,591.0,517.0,8,4
1116,2.22,-3.15,8.09,-0.03,-0.03,0.0,602.0,568.0,560.0,591.0,517.0,8,4
1117,2.23,-3.16,8.14,-0.02,-0.05,0.01,603.0,568.0,559.0,591.0,516.0,8,4
1118,2.32,-3.15,8.04,-0.02,-0.05,0.01,603.0,568.0,559.0,592.0,517.0,8,4
1119,2.21,-3.15,8.03,-0.03,-0.01,0.02,603.0,568.0,559.0,591.0,516.0,8,4
1120,2.21,-3.13,8.08,-0.03,-0.01,-0.0,603.0,568.0,559.0,591.0,517.0,8,4
1121,2.18,-3.18,8.09,-0.03,-0.04,0.01,602.0,567.0,559.0,592.0,517.0,8,4
1122,2.29,-3.17,8.16,-0.03,-0.02,0.01,603.0,567.0,559.0,592.0,517.0,8,4
1123,2.26,-3.17,8.1,-0.03,-0.01,0.0,603.0,568.0,559.0,591.0,517.0,8,4
1124,2.16,-3.11,8.08,-0.03,-0.0,0.01,603.0,568.0,560.0,592.0,517.0,8,4
1125,2.25,-3.15,8.11,-0.03,-0.01,0.0,603.0,567.0,559.0,591.0,516.0,8,4
1126,2.34,-3.11,8.08,-0.03,-0.03,0.0,603.0,568.0,559.0,591.0,516.0,8,4
1127,2.26,-3.17,8.1,-0.03,-0.03,-0.0,604.0,568.0,559.0,591.0,517.0,8,4
1128,2.16,-3.13,8.14,-0.03,-0.01,0.0,603.0,567.0,560.0,592.0,517.0,8,4
1129,2.26,-3.15,8.09,-0.03,-0.01,0.0,603.0,567.0,560.0,591.0,517.0,8,4
1130,2.27,-3.15,8.13,-0.03,-0.02,0.0,604.0,568.0,559.0,591.0,516.0,8,4
1131,2.25,-3.12,8.1,-0.03,-0.02,0.01,603.0,568.0,559.0,591.0,516.0,8,4
1132,2.27,-3.16,8.15,-0.03,-0.02,0.01,603.0,569.0,559.0,592.0,517.0,8,4
1133,2.24,-3.18,8.05,-0.03,-0.02,0.01,604.0,567.0,559.0,591.0,517.0,8,4
1134,2.27,-3.13,8.13,-0.03,-0.01,0.01,603.0,567.0,560.0,591.0,517.0,8,4
1135,2.28,-3.14,8.03,-0.03,-0.02,0.01,603.0,568.0,559.0,591.0,517.0,8,4
1136,2.23,-3.15,8.09,-0.03,-0.02,0.01,602.0,567.0,559.0,591.0,517.0,8,4
1137,2.23,-3.17,8.11,-0.03,-0.02,0.01,602.0,568.0,559.0,592.0,517.0,8,4
1138,2.23,-3.16,8.12,-0.03,-0.02,0.01,604.0,568.0,560.0,591.0,517.0,8,4
1139,2.25,-3.2,8.09,-0.03,-0.01,0.01,604.0,568.0,560.0,592.0,516.0,8,4
1140,2.31,-3.17,8.09,-0.03,-0.02,0.01,602.0,568.0,560.0,591.0,517.0,8,4
1141,2.26,-3.18,8.1,-0.03,-0.02,0.01,603.0,568.0,559.0,592.0,517.0,8,4
1142,2.25,-3.19,8.11,-0.03,-0.03,0.01,604.0,568.0,560.0,591.0,517.0,8,4
1143,2.22,-3.14,8.04,-0.03,-0.01,0.01,603.0,568.0,559.0,592.0,517.0,8,4
1144,2.27,-3.15,8.11,-0.03,-0.01,0.01,603.0,567.0,559.0,592.0,517.0,8,4
1145,2.26,-3.18,8.1,-0.03,-0.02,0.0,603.0,568.0,560.0,591.0,517.0,8,4
1146,2.23,-3.13,8.04,-0.03,-0.01,-0.0,603.0,567.0,559.0,592.0,517.0,8,4
1147,2.32,-3.14,8.15,-0.03,-0.02,-0.0,603.0,568.0,560.0,591.0,517.0,8,4
1148,2.28,-3.15,8.04,-0.03,-0.02,-0.0,603.0,568.0,559.0,592.0,517.0,8,4
1149,2.26,-3.16,8.05,-0.03,-0.02,0.01,603.0,568.0,560.0,591.0,517.0,8,4
1150,2.26,-3.18,8.11,-0.03,-0.02,0.01,603.0,568.0,560.0,591.0,517.0,8,4
1151,2.3,-3.18,8.05,-0.03,-0.02,-0.0,602.0,568.0,560.0,592.0,518.0,8,4
1152,2.24,-3.18,8.09,-0.03,-0.01,0.0,602.0,568.0,560.0,591.0,517.0,8,4
1153,2.31,-3.18,8.1,-0.03,-0.01,0.0,603.0,568.0,560.0,591.0,518.0,8,4
1154,2.26,-3.16,8.11,-0.03,-0.02,0.01,603.0,568.0,560.0,592.0,517.0,8,4
1155,2.27,-3.18,8.09,-0.03,-0.02,0.01,603.0,567.0,559.0,591.0,517.0,8,4
1156,2.29,-3.18,8.13,-0.03,-0.02,0.0,603.0,568.0,559.0,591.0,518.0,8,4
1157,2.23,-3.14,8.07,-0.03,-0.01,0.01,603.0,568.0,559.0,591.0,517.0,8,4
1158,2.25,-3.19,8.06,-0.03,-0.01,0.01,603.0,568.0,560.0,591.0,517.0,8,4
1159,2.29,-3.16,8.07,-0.03,-0.02,0.0,604.0,568.0,559.0,591.0,517.0,8,4
1160,2.26,-3.13,8.1,-0.03,-0.02,0.0,603.0,568.0,559.0,591.0,518.0,8,4
1161,2.23,-3.22,8.06,-0.03,-0.02,0.0,603.0,568.0,559.0,592.0,518.0,8,4
1162,2.24,-3.13,8.13,-0.03,-0.02,0.01,603.0,568.0,560.0,592.0,518.0,8,4
1163,2.27,-3.17,8.09,-0.03,-0.01,0.01,603.0,568.0,560.0,592.0,518.0,8,4
1164,2.35,-3.18,8.13,-0.03,-0.02,0.01,603.0,568.0,560.0,592.0,518.0,8,4
1165,2.32,-3.21,8.12,-0.03,-0.02,0.0,603.0,568.0,560.0,591.0,518.0,8,4
1166,2.12,-3.1,7.98,-0.02,-0.01,-0.0,603.0,568.0,560.0,592.0,518.0,8,4
1167,2.38,-3.18,8.16,-0.03,-0.01,0.01,603.0,568.0,560.0,592.0,517.0,8,4
1168,2.28,-3.19,8.15,-0.03,-0.02,0.01,603.0,568.0,560.0,592.0,518.0,8,4
1169,2.27,-3.16,8.07,-0.03,-0.01,0.01,603.0,568.0,560.0,591.0,518.0,8,4
1170,2.23,-3.16,8.04,-0.03,-0.01,0.01,604.0,568.0,560.0,591.0,518.0,8,4
1171,2.26,-3.09,8.02,-0.03,-0.01,0.0,603.0,568.0,559.0,591.0,518.0,8,4
1172,2.22,-3.17,8.12,-0.03,-0.02,0.0,603.0,568.0,559.0,591.0,518.0,8,4
1173,2.25,-3.17,8.07,-0.03,-0.01,0.01,603.0,568.0,559.0,592.0,518.0,8,4
1174,2.34,-3.19,8.11,-0.03,-0.01,0.01,603.0,568.0,560.0,592.0,518.0,8,4
1175,2.24,-3.15,8.05,-0.03,-0.03,0.01,602.0,568.0,560.0,592.0,518.0,8,4
1176,2.24,-3.2,8.05,-0.03,-0.03,0.0,603.0,568.0,560.0,591.0,518.0,8,4
1177,2.23,-3.16,8.11,-0.03,-0.02,0.0,603.0,568.0,560.0,592.0,518.0,8,4
1178,2.25,-3.19,8.13,-0.03,-0.01,0.01,603.0,568.0,559.0,591.0,518.0,8,4
1179,2.3,-3.16,8.07,-0.03,-0.02,0.01,604.0,568.0,560.0,592.0,519.0,8,4
1180,2.26,-3.11,8.09,-0.03,-0.02,0.01,603.0,568.0,560.0,592.0,519.0,8,4
1181,2.24,-3.16,8.12,-0.03,-0.02,0.0,603.0,569.0,559.0,592.0,519.0,8,4
1182,2.21,-3.15,8.12,-0.03,-0.01,0.01,603.0,567.0,559.0,592.0,518.0,8,4
1183,2.29,-3.19,8.11,-0.03,-0.02,0.01,603.0,568.0,560.0,592.0,519.0,8,4
1184,2.27,-3.16,8.09,-0.03,-0.01,0.01,603.0,569.0,560.0,592.0,519.0,8,4
1185,2.26,-3.15,8.01,-0.03,-0.01,0.01,602.0,568.0,559.0,592.0,519.0,8,4
1186,2.26,-3.16,8.1,-0.03,-0.02,0.01,603.0,568.0,560.0,591.0,519.0,8,4
1187,2.26,-3.2,8.12,-0.03,-0.02,0.01,603.0,568.0,560.0,592.0,518.0,8,4
1188,2.23,-3.13,8.17,-0.03,-0.02,0.01,603.0,568.0,560.0,592.0,519.0,8,4
1189,2.34,-3.18,8.09,-0.03,-0.01,0.01,603.0,568.0,560.0,591.0,519.0,8,4
1190,2.22,-3.14,8.09,-0.03,-0.01,0.01,602.0,568.0,560.0,591.0,519.0,8,4
1191,2.2,-3.13,8.12,-0.03,-0.02,0.01,602.0,568.0,560.0,591.0,519.0,8,4
1192,2.3,-3.18,8.04,-0.03,-0.01,0.01,603.0,568.0,560.0,592.0,519.0,8,4
1193,2.25,-3.15,8.06,-0.03,-0.02,0.01,604.0,568.0,560.0,591.0,519.0,8,4
1194,2.27,-3.17,8.1,-0.03,-0.02,0.01,603.0,568.0,560.0,591.0,519.0,8,4
1195,2.33,-3.15,8.08,-0.03,-0.02,0.0,603.0,568.0,560.0,592.0,519.0,8,4
1196,2.18,-3.18,8.07,-0.03,-0.01,0.01,602.0,568.0,560.0,592.0,519.0,8,4
1197,2.18,-3.14,8.16,-0.03,-0.01,0.01,603.0,569.0,560.0,592.0,519.0,8,4
1198,2.24,-3.17,8.04,-0.03,0.0,0.01,603.0,568.0,560.0,592.0,519.0,8,4
1199,2.26,-3.16,8.04,-0.03,-0.02,0.01,603.0,568.0,560.0,592.0,519.0,8,4
1200,2.26,-3.18,8.09,-0.03,-0.01,0.0,602.0,568.0,561.0,592.0,521.0,9,4
1201,2.31,-3.13,8.08,-0.03,-0.02,0.01,603.0,570.0,561.0,592.0,521.0,9,4
1202,2.2,-3.16,8.12,-0.02,-0.03,0.0,602.0,569.0,561.0,592.0,521.0,9,4
1203,2.43,-3.2,8.02,-0.03,-0.03,0.0,603.0,569.0,561.0,592.0,521.0,9,4
1204,2.33,-3.11,8.03,-0.03,-0.04,0.0,603.0,568.0,560.0,592.0,521.0,9,4
1205,2.3,-3.14,8.07,-0.03,-0.01,0.0,604.0,568.0,561.0,592.0,521.0,9,4
1206,2.32,-3.21,8.07,-0.03,0.02,0.01,603.0,569.0,561.0,592.0,521.0,9,4
1207,2.2,-3.15,8.16,-0.02,-0.0,0.01,604.0,569.0,561.0,592.0,521.0,9,4
1208,2.53,-3.12,7.95,-0.03,-0.02,0.01,603.0,569.0,561.0,592.0,521.0,9,4
1209,2.22,-3.18,8.08,-0.02,-0.04,0.01,603.0,570.0,560.0,591.0,521.0,9,4
1210,2.37,-3.12,8.0,-0.01,-0.03,-0.0,602.0,569.0,561.0,592.0,522.0,9,4
1211,2.33,-3.14,8.12,-0.03,-0.03,-0.01,604.0,569.0,561.0,592.0,521.0,9,4
1212,2.32,-3.1,8.01,-0.03,-0.01,-0.0,603.0,569.0,561.0,593.0,521.0,9,4
1213,2.31,-3.18,8.14,-0.03,-0.01,0.01,604.0,569.0,561.0,592.0,521.0,9,4
1214,2.44,-3.1,8.12,-0.02,-0.11,-0.01,603.0,569.0,561.0,592.0,521.0,9,4
1215,2.45,-3.1,8.01,-0.02,-0.0,0.02,603.0,569.0,561.0,592.0,521.0,9,4
1216,2.46,-3.15,8.05,-0.02,-0.02,0.01,604.0,569.0,561.0,591.0,521.0,9,4
1217,2.5,-3.17,7.97,-0.03,-0.01,0.01,604.0,568.0,561.0,592.0,521.0,9,4
1218,2.42,-3.09,8.08,-0.04,0.04,0.0,603.0,569.0,561.0,592.0,521.0,9,4
1219,2.34,-3.21,8.04,-0.05,0.04,-0.0,604.0,569.0,561.0,592.0,521.0,9,4
1220,2.32,-3.13,8.06,-0.03,0.01,-0.0,603.0,569.0,562.0,593.0,522.0,9,4
1221,2.35,-3.16,8.06,-0.03,-0.02,0.01,605.0,569.0,561.0,592.0,522.0,9,4
1222,2.33,-3.12,8.07,-0.03,-0.02,-0.0,603.0,569.0,561.0,592.0,522.0,9,4
1223,2.31,-3.15,8.14,-0.03,-0.04,-0.0,604.0,570.0,561.0,592.0,521.0,9,4
1224,2.28,-3.14,8.02,-0.03,-0.0,0.01,603.0,570.0,561.0,592.0,522.0,9,4
1225,2.34,-3.17,8.02,-0.03,-0.03,0.01,603.0,569.0,561.0,592.0,522.0,9,4
1226,2.32,-3.17,8.04,-0.03,-0.04,0.01,603.0,569.0,561.0,592.0,522.0,9,4
1227,2.23,-3.12,8.08,-0.03,-0.02,0.01,603.0,568.0,562.0,593.0,521.0,9,4
1228,2.35,-3.14,8.03,-0.03,0.0,0.02,604.0,570.0,561.0,592.0,522.0,9,4
1229,2.33,-3.14,8.03,-0.03,0.01,-0.0,603.0,569.0,561.0,591.0,522.0,9,4
1230,2.27,-3.16,8.06,-0.02,-0.0,-0.0,602.0,569.0,561.0,592.0,521.0,9,4
1231,2.34,-3.19,8.12,-0.03,0.01,0.01,604.0,569.0,561.0,592.0,521.0,9,4
1232,2.38,-3.16,8.08,-0.03,-0.01,0.01,604.0,569.0,561.0,592.0,522.0,9,4
1233,2.27,-3.14,8.06,-0.03,-0.03,0.01,604.0,569.0,561.0,592.0,522.0,9,4
1234,2.33,-3.14,8.1,-0.03,-0.01,0.01,603.0,569.0,561.0,592.0,522.0,9,4
1235,2.32,-3.15,8.09,-0.03,-0.03,0.01,603.0,569.0,561.0,592.0,522.0,9,4
1236,2.23,-3.19,8.07,-0.03,-0.02,0.01,604.0,569.0,561.0,592.0,522.0,9,4
1237,2.28,-3.17,8.04,-0.03,-0.03,0.01,603.0,569.0,562.0,592.0,522.0,9,4
1238,2.33,-3.17,8.05,-0.03,-0.01,0.01,603.0,568.0,561.0,593.0,522.0,9,4
1239,2.23,-3.11,8.01,-0.03,-0.01,0.01,603.0,568.0,561.0,592.0,522.0,9,4
1240,2.39,-3.16,8.01,-0.03,-0.0,0.01,603.0,569.0,561.0,592.0,523.0,9,4
1241,2.31,-3.17,8.11,-0.03,-0.03,0.0,604.0,568.0,561.0,592.0,522.0,9,4
1242,2.29,-3.17,8.12,-0.03,-0.01,0.01,603.0,568.0,561.0,592.0,522.0,9,4
1243,2.33,-3.13,8.1,-0.03,-0.02,-0.0,604.0,569.0,561.0,592.0,522.0,9,4
1244,2.29,-3.15,8.03,-0.03,-0.01,-0.0,602.0,569.0,562.0,592.0,523.0,9,4
1245,2.3,-3.16,8.11,-0.03,-0.01,0.01,603.0,569.0,561.0,592.0,523.0,9,4
1246,2.35,-3.12,8.0,-0.03,-0.01,0.0,603.0,568.0,561.0,592.0,522.0,9,4
1247,2.3,-3.14,8.03,-0.03,-0.03,0.0,603.0,569.0,561.0,592.0,523.0,9,4
1248,2.19,-3.1,7.98,-0.03,-0.01,0.0,604.0,568.0,560.0,592.0,523.0,9,4
1249,2.29,-3.13,8.08,-0.03,0.01,0.01,603.0,569.0,561.0,592.0,523.0,9,4
1250,2.41,-3.16,8.03,-0.03,-0.03,0.01,604.0,569.0,561.0,592.0,523.0,9,4
1251,2.25,-3.1,8.09,-0.03,-0.02,-0.0,603.0,570.0,561.0,592.0,523.0,9,4
1252,2.28,-3.16,8.02,-0.03,-0.01,0.01,603.0,569.0,561.0,592.0,523.0,9,4
1253,2.36,-3.13,8.11,-0.03,-0.0,0.01,603.0,569.0,561.0,592.0,522.0,9,4
1254,2.34,-3.14,8.05,-0.03,-0.01,0.01,603.0,568.0,561.0,592.0,523.0,9,4
1255,2.31,-3.13,8.08,-0.03,-0.02,0.0,603.0,568.0,561.0,592.0,523.0,9,4
1256,2.33,-3.11,8.06,-0.03,-0.02,0.01,603.0,569.0,561.0,593.0,522.0,9,4
1257,2.23,-3.08,7.96,-0.03,-0.02,0.0,602.0,569.0,561.0,592.0,523.0,9,4
1258,2.26,-3.14,7.97,-0.03,-0.01,0.01,603.0,569.0,561.0,592.0,523.0,9,4
1259,2.36,-3.15,8.06,-0.03,-0.02,0.0,602.0,569.0,561.0,592.0,523.0,9,4
1260,2.31,-3.12,8.06,-0.03,-0.02,0.0,603.0,570.0,561.0,592.0,523.0,9,4
1261,2.29,-3.08,8.09,-0.03,-0.01,0.01,604.0,568.0,562.0,592.0,523.0,9,4
1262,2.37,-3.17,8.11,-0.03,-0.02,0.01,603.0,569.0,561.0,593.0,524.0,9,4
1263,2.33,-3.14,8.15,-0.03,-0.02,0.0,602.0,569.0,561.0,592.0,523.0,9,4
1264,2.26,-3.14,8.07,-0.03,-0.02,0.01,603.0,569.0,561.0,592.0,523.0,9,4
1265,2.24,-3.09,8.08,-0.03,-0.01,0.0,603.0,569.0,561.0,593.0,524.0,9,4
1266,2.35,-3.12,7.97,-0.03,-0.01,0.01,603.0,569.0,562.0,593.0,523.0,9,4
1267,2.36,-3.15,8.01,-0.04,-0.0,0.01,603.0,569.0,562.0,593.0,524.0,9,4
1268,2.3,-3.17,8.08,-0.03,-0.04,0.01,603.0,569.0,562.0,592.0,523.0,9,4
1269,2.3,-3.19,8.05,-0.03,-0.02,0.0,603.0,569.0,561.0,592.0,523.0,9,4
1270,2.21,-3.18,8.05,-0.02,-0.01,-0.0,604.0,569.0,561.0,592.0,524.0,9,4
1271,2.32,-3.16,8.06,-0.03,-0.02,0.01,603.0,569.0,562.0,592.0,523.0,9,4
1272,2.32,-3.13,8.02,-0.03,-0.02,0.01,602.0,569.0,561.0,593.0,523.0,9,4
1273,2.31,-3.14,8.11,-0.03,-0.02,0.0,604.0,569.0,561.0,593.0,523.0,9,4
1274,2.25,-3.07,8.04,-0.03,-0.02,0.01,604.0,569.0,562.0,592.0,524.0,9,4
1275,2.27,-3.14,8.07,-0.03,-0.03,-0.0,603.0,569.0,561.0,593.0,524.0,9,4
1276,2.28,-3.22,8.15,-0.02,-0.05,0.0,603.0,569.0,561.0,592.0,524.0,9,4
1277,2.34,-3.12,8.08,-0.02,-0.04,0.02,603.0,569.0,562.0,592.0,523.0,9,4
1278,2.42,-3.14,8.04,-0.03,-0.04,0.01,603.0,569.0,561.0,591.0,524.0,9,4
1279,2.46,-3.19,8.02,-0.03,-0.02,0.01,603.0,553.0,561.0,593.0,524.0,9,4
1280,2.5,-3.09,7.96,-0.03,-0.09,0.02,603.0,561.0,545.0,592.0,523.0,9,4
1281,2.3,-3.17,8.1,-0.02,0.01,0.02,603.0,561.0,535.0,593.0,524.0,9,4
1282,2.4,-3.09,8.02,-0.04,0.02,0.02,604.0,563.0,536.0,593.0,524.0,9,4
1283,2.41,-3.14,7.97,-0.02,0.04,0.03,603.0,564.0,532.0,592.0,524.0,9,4
1284,2.26,-3.15,8.1,0.01,0.03,0.04,603.0,564.0,531.0,592.0,524.0,9,4
1285,2.29,-3.03,7.97,-0.02,-0.03,-0.01,603.0,565.0,531.0,592.0,524.0,9,4
1286,2.22,-3.14,8.05,-0.03,-0.0,-0.0,603.0,566.0,530.0,592.0,524.0,9,4
1287,2.17,-3.07,8.11,-0.03,0.01,0.01,604.0,565.0,535.0,592.0,524.0,9,4
1288,2.3,-3.17,8.05,-0.03,-0.04,-0.0,603.0,566.0,540.0,592.0,524.0,9,4
1289,2.3,-3.15,8.11,-0.03,-0.05,-0.01,604.0,568.0,545.0,592.0,524.0,9,4
1290,2.3,-3.16,8.05,-0.04,-0.03,-0.0,604.0,567.0,545.0,593.0,525.0,9,4
1291,2.26,-3.06,8.06,-0.03,-0.01,0.0,602.0,568.0,552.0,593.0,524.0,9,4
1292,2.4,-3.13,8.1,-0.03,-0.03,-0.0,603.0,568.0,553.0,592.0,524.0,9,4
1293,2.28,-3.15,8.07,-0.03,-0.03,0.0,603.0,568.0,553.0,593.0,524.0,9,4
1294,2.3,-3.16,8.07,-0.03,-0.02,0.01,604.0,569.0,552.0,592.0,525.0,9,4
1295,2.39,-3.11,8.08,-0.03,-0.03,0.01,603.0,568.0,552.0,592.0,524.0,9,4
1296,2.18,-3.27,7.54,-0.08,0.14,-0.0,603.0,568.0,553.0,593.0,525.0,9,4
1297,2.23,-3.24,8.09,-0.0,-0.16,0.01,603.0,569.0,554.0,592.0,524.0,9,4
1298,2.39,-3.14,8.09,-0.07,-0.07,0.0,603.0,569.0,553.0,592.0,525.0,9,4
1299,2.35,-3.07,8.11,-0.02,-0.03,0.02,603.0,570.0,553.0,592.0,524.0,9,4
1300,2.31,-3.18,8.19,-0.02,-0.02,0.0,603.0,568.0,552.0,592.0,525.0,9,4
1301,2.32,-3.16,8.06,-0.04,-0.02,0.0,604.0,569.0,553.0,593.0,525.0,9,4
1302,2.41,-3.07,8.09,-0.03,-0.01,0.01,603.0,569.0,553.0,592.0,524.0,9,4
1303,2.32,-3.15,8.05,-0.03,0.01,-0.01,604.0,569.0,553.0,592.0,525.0,9,4
1304,2.28,-3.13,8.04,-0.03,0.01,-0.0,603.0,568.0,553.0,592.0,524.0,9,4
1305,2.34,-3.14,8.09,-0.03,-0.01,0.01,603.0,569.0,553.0,592.0,525.0,9,4
1306,2.25,-3.14,8.11,-0.03,-0.01,-0.01,603.0,569.0,553.0,593.0,525.0,9,4
1307,2.27,-3.16,8.12,-0.03,-0.03,0.01,604.0,569.0,553.0,593.0,525.0,9,4
1308,2.28,-3.13,8.14,-0.02,-0.03,0.01,603.0,569.0,553.0,593.0,525.0,9,4
1309,2.14,-3.18,8.24,-0.03,-0.09,-0.05,603.0,541.0,554.0,593.0,525.0,9,4
1310,2.16,-3.13,8.14,-0.01,0.03,0.04,603.0,542.0,554.0,593.0,525.0,9,4
1311,2.38,-3.09,8.12,-0.03,-0.04,0.0,603.0,545.0,554.0,593.0,525.0,9,4
1312,2.38,-3.14,8.11,-0.02,-0.02,-0.0,603.0,545.0,555.0,592.0,524.0,9,4
1313,2.28,-3.08,8.05,-0.04,-0.01,-0.01,603.0,548.0,555.0,593.0,525.0,9,4
1314,2.39,-3.09,8.04,-0.05,-0.0,0.01,603.0,548.0,555.0,593.0,525.0,9,4
1315,2.17,-3.49,8.24,-0.04,0.02,0.02,603.0,555.0,554.0,592.0,525.0,9,4
1316,2.31,-3.13,8.06,-0.03,0.02,0.01,602.0,557.0,554.0,592.0,525.0,9,4
1317,2.39,-3.16,8.03,-0.03,-0.02,0.01,603.0,557.0,554.0,592.0,525.0,9,4
1318,2.29,-3.09,8.1,-0.03,-0.01,0.01,603.0,556.0,554.0,593.0,525.0,9,4
1319,2.25,-3.14,8.1,-0.03,0.01,0.01,603.0,557.0,554.0,593.0,525.0,9,4
1320,2.24,-3.13,8.06,-0.03,0.02,0.01,602.0,555.0,554.0,593.0,526.0,9,4
1321,2.31,-3.17,8.06,-0.03,-0.0,0.0,604.0,557.0,555.0,593.0,526.0,9,4
1322,2.23,-3.13,8.06,-0.03,-0.01,0.01,604.0,556.0,555.0,593.0,525.0,9,4
1323,2.25,-3.18,8.06,-0.03,-0.01,0.0,604.0,556.0,555.0,593.0,525.0,9,4
1324,2.28,-3.12,8.08,-0.03,-0.02,0.0,604.0,558.0,555.0,593.0,525.0,9,4
1325,2.25,-3.16,8.07,-0.03,-0.03,0.01,604.0,558.0,554.0,592.0,525.0,9,4
1326,2.31,-3.16,8.1,-0.03,-0.02,0.01,603.0,557.0,554.0,593.0,526.0,9,4
1327,2.3,-3.16,8.05,-0.03,-0.02,0.0,604.0,557.0,555.0,592.0,526.0,9,4
1328,2.32,-3.11,8.03,-0.03,-0.02,0.01,603.0,557.0,555.0,593.0,525.0,9,4
1329,2.35,-3.16,8.05,-0.03,-0.01,0.01,603.0,557.0,554.0,592.0,526.0,9,4
1330,2.32,-3.17,8.09,-0.03,-0.0,0.01,604.0,557.0,555.0,593.0,524.0,9,4
1331,2.26,-3.17,8.13,-0.03,0.01,-0.0,603.0,557.0,555.0,592.0,526.0,9,4
1332,2.31,-3.13,8.0,-0.03,-0.02,-0.02,603.0,557.0,555.0,593.0,526.0,9,4
1333,2.23,-3.17,8.07,-0.03,-0.05,-0.01,604.0,557.0,555.0,592.0,526.0,9,4
1334,2.25,-3.12,8.18,-0.03,-0.05,0.02,602.0,558.0,555.0,593.0,526.0,9,4
1335,2.37,-3.13,8.05,-0.03,-0.03,0.02,603.0,557.0,555.0,593.0,526.0,9,4
1336,2.22,-3.17,8.05,-0.03,-0.05,0.0,603.0,558.0,555.0,593.0,526.0,9,4
1337,2.36,-3.08,8.04,-0.02,-0.08,0.01,603.0,557.0,555.0,593.0,526.0,9,4
1338,2.43,-3.13,8.02,-0.02,-0.02,0.02,603.0,558.0,555.0,593.0,526.0,9,4
1339,2.43,-3.11,8.07,-0.04,0.02,0.01,602.0,558.0,555.0,593.0,526.0,9,4
1340,2.33,-3.17,8.13,-0.03,0.04,0.01,603.0,557.0,555.0,593.0,526.0,9,4
1341,2.3,-3.1,8.08,-0.03,0.02,-0.01,603.0,558.0,555.0,593.0,526.0,9,4
1342,2.25,-3.11,8.13,-0.02,0.02,-0.0,604.0,558.0,555.0,592.0,526.0,9,4
1343,2.29,-3.12,8.02,-0.02,-0.01,0.01,603.0,557.0,555.0,593.0,526.0,9,4
1344,2.31,-3.2,8.03,-0.03,0.01,0.01,603.0,558.0,555.0,593.0,527.0,9,4
1345,2.27,-3.12,8.1,-0.03,-0.01,0.01,604.0,558.0,554.0,592.0,526.0,9,4
1346,2.26,-3.11,8.01,-0.03,0.0,0.01,603.0,558.0,555.0,593.0,527.0,9,4
1347,2.31,-3.17,8.06,-0.04,-0.0,0.01,604.0,558.0,555.0,593.0,526.0,9,4
1348,2.23,-3.14,8.1,-0.03,0.0,0.0,603.0,559.0,555.0,593.0,526.0,9,4
1349,2.23,-3.14,8.06,-0.03,-0.02,0.01,603.0,559.0,555.0,593.0,526.0,9,4
1350,2.26,-3.13,8.11,-0.03,-0.02,0.01,603.0,559.0,556.0,593.0,528.0,10,4
1351,2.22,-3.19,8.12,-0.03,-0.03,0.0,602.0,559.0,555.0,593.0,528.0,10,4
1352,2.46,-3.18,8.13,-0.03,-0.05,0.01,603.0,559.0,556.0,593.0,528.0,10,4
1353,2.4,-3.11,7.98,-0.02,-0.06,-0.0,604.0,559.0,555.0,593.0,528.0,10,4
1354,2.4,-3.19,7.99,-0.03,-0.0,0.03,603.0,559.0,556.0,593.0,529.0,10,4
1355,2.34,-3.06,8.02,-0.03,-0.0,0.01,604.0,559.0,556.0,594.0,527.0,10,4
1356,2.38,-3.11,8.01,-0.03,0.03,-0.0,603.0,559.0,556.0,593.0,528.0,10,4
1357,2.21,-3.24,8.11,-0.03,-0.03,-0.0,604.0,559.0,555.0,593.0,528.0,10,4
1358,2.42,-3.16,8.11,-0.03,-0.03,0.03,603.0,559.0,555.0,593.0,528.0,10,4
1359,2.44,-3.14,8.08,-0.03,0.02,0.01,603.0,559.0,556.0,593.0,529.0,10,4
1360,2.24,-3.17,8.13,-0.03,-0.01,-0.02,604.0,559.0,556.0,592.0,528.0,10,4
1361,2.31,-3.14,8.1,-0.03,-0.0,0.01,604.0,560.0,556.0,593.0,528.0,10,4
1362,2.37,-3.14,8.08,-0.03,-0.04,-0.0,604.0,559.0,555.0,593.0,529.0,10,4
1363,2.33,-3.14,8.06,-0.03,-0.03,0.01,604.0,559.0,556.0,593.0,528.0,10,4
1364,2.37,-3.15,8.09,-0.02,-0.08,0.01,603.0,559.0,556.0,593.0,529.0,10,4
1365,2.37,-3.12,8.04,-0.02,-0.03,0.02,602.0,558.0,556.0,593.0,528.0,10,4
1366,2.36,-3.12,8.05,-0.03,-0.02,0.01,603.0,558.0,556.0,592.0,528.0,10,4
1367,2.49,-3.13,8.03,-0.03,0.0,0.0,604.0,560.0,555.0,592.0,528.0,10,4
1368,2.37,-3.12,8.09,-0.03,0.02,0.0,603.0,559.0,556.0,593.0,529.0,10,4
1369,2.38,-3.15,8.11,-0.04,0.03,0.0,604.0,559.0,556.0,593.0,530.0,10,4
1370,2.3,-3.09,8.03,-0.04,0.02,-0.0,604.0,560.0,556.0,593.0,528.0,10,4
1371,2.28,-3.17,8.04,-0.03,-0.0,0.0,603.0,559.0,556.0,593.0,528.0,10,4
1372,2.24,-3.12,8.06,-0.03,-0.0,0.01,603.0,559.0,556.0,593.0,529.0,10,4
1373,2.22,-3.18,8.1,-0.03,0.01,0.01,603.0,559.0,556.0,593.0,528.0,10,4
1374,2.31,-3.13,8.09,-0.03,-0.01,0.01,604.0,559.0,556.0,593.0,529.0,10,4
1375,2.25,-3.12,8.09,-0.03,-0.02,0.01,604.0,560.0,556.0,593.0,529.0,10,4
1376,2.27,-3.18,8.08,-0.03,-0.01,0.01,603.0,559.0,556.0,593.0,529.0,10,4
1377,2.27,-3.15,8.04,-0.03,-0.01,0.01,604.0,560.0,556.0,593.0,529.0,10,4
1378,2.24,-3.15,8.04,-0.03,-0.02,0.01,603.0,559.0,556.0,594.0,528.0,10,4
1379,2.28,-3.15,8.08,-0.03,-0.02,0.0,604.0,559.0,556.0,593.0,529.0,10,4
1380,2.3,-3.11,8.08,-0.03,-0.02,0.01,604.0,560.0,557.0,593.0,528.0,10,4
1381,2.28,-3.15,8.06,-0.03,-0.02,0.01,604.0,560.0,556.0,593.0,529.0,10,4
1382,2.26,-3.15,8.1,-0.03,-0.02,0.01,603.0,560.0,556.0,593.0,529.0,10,4
1383,2.28,-3.16,8.02,-0.03,-0.03,0.01,603.0,560.0,556.0,592.0,529.0,10,4
1384,2.27,-3.14,8.04,-0.03,-0.01,0.01,604.0,559.0,556.0,593.0,529.0,10,4
1385,2.28,-3.17,8.1,-0.03,-0.02,0.01,603.0,560.0,556.0,593.0,529.0,10,4
1386,2.21,-3.15,8.05,-0.03,-0.02,0.01,603.0,560.0,556.0,593.0,529.0,10,4
1387,2.3,-3.13,8.09,-0.03,-0.02,0.01,604.0,561.0,556.0,593.0,529.0,10,4
1388,2.32,-3.12,8.1,-0.03,-0.04,0.01,603.0,559.0,556.0,593.0,529.0,10,4
1389,2.34,-3.15,8.04,-0.03,-0.03,-0.0,603.0,560.0,556.0,594.0,529.0,10,4
1390,2.33,-3.19,8.09,-0.03,-0.02,-0.0,603.0,559.0,556.0,593.0,529.0,10,4
1391,2.31,-3.16,8.06,-0.03,-0.01,0.01,603.0,560.0,556.0,593.0,529.0,10,4
1392,2.32,-3.2,8.1,-0.03,0.0,0.01,603.0,560.0,556.0,593.0,529.0,10,4
1393,2.34,-3.14,8.12,-0.03,-0.01,0.0,604.0,559.0,556.0,593.0,529.0,10,4
1394,2.28,-3.17,8.08,-0.03,-0.0,0.01,604.0,560.0,556.0,593.0,529.0,10,4
1395,2.28,-3.15,8.11,-0.03,-0.01,0.0,603.0,559.0,556.0,593.0,529.0,10,4
1396,2.23,-3.17,8.06,-0.03,-0.01,0.0,603.0,559.0,556.0,593.0,529.0,10,4
1397,2.28,-3.16,8.13,-0.03,-0.01,0.01,604.0,559.0,556.0,593.0,529.0,10,4
1398,2.33,-3.15,8.07,-0.03,-0.02,0.01,603.0,559.0,556.0,593.0,529.0,10,4
1399,2.24,-3.11,8.1,-0.03,-0.02,0.0,604.0,560.0,557.0,592.0,529.0,10,4
1400,2.31,-3.14,8.06,-0.03,-0.02,0.01,603.0,560.0,556.0,594.0,529.0,10,4
1401,2.29,-3.16,8.03,-0.03,-0.02,0.01,604.0,560.0,556.0,592.0,529.0,10,4
1402,2.27,-3.16,8.04,-0.03,-0.01,0.01,604.0,558.0,556.0,593.0,530.0,10,4
1403,2.33,-3.17,8.04,-0.03,-0.02,0.0,604.0,560.0,556.0,593.0,529.0,10,4
1404,2.3,-3.14,8.08,-0.03,-0.02,0.01,603.0,560.0,556.0,593.0,529.0,10,4
1405,2.31,-3.16,8.11,-0.03,-0.02,0.0,603.0,560.0,555.0,593.0,530.0,10,4
1406,2.24,-3.15,8.08,-0.03,-0.02,0.01,603.0,560.0,556.0,593.0,530.0,10,4
1407,2.27,-3.18,8.12,-0.03,-0.0,0.01,603.0,560.0,556.0,593.0,530.0,10,4
1408,2.29,-3.15,8.06,-0.03,-0.01,0.0,604.0,559.0,556.0,593.0,529.0,10,4
1409,2.29,-3.18,8.05,-0.03,-0.01,0.01,603.0,561.0,556.0,592.0,530.0,10,4
1410,2.3,-3.17,8.07,-0.03,-0.02,0.0,603.0,560.0,556.0,593.0,529.0,10,4
1411,2.28,-3.14,8.11,-0.03,-0.02,0.0,604.0,559.0,556.0,593.0,530.0,10,4
1412,2.27,-3.12,8.1,-0.03,-0.01,0.01,604.0,560.0,557.0,593.0,529.0,10,4
1413,2.32,-3.17,8.17,-0.03,-0.02,0.01,603.0,560.0,556.0,593.0,529.0,10,4
1414,2.3,-3.16,8.06,-0.03,-0.01,0.01,603.0,559.0,557.0,593.0,530.0,10,4
1415,2.27,-3.14,8.09,-0.03,-0.02,0.01,604.0,560.0,556.0,593.0,530.0,10,4
1416,2.29,-3.15,8.07,-0.03,-0.02,0.01,603.0,560.0,556.0,593.0,529.0,10,4
1417,2.25,-3.13,8.08,-0.03,-0.01,0.01,603.0,559.0,556.0,594.0,529.0,10,4
1418,2.31,-3.15,8.11,-0.03,-0.01,0.01,603.0,560.0,556.0,593.0,529.0,10,4
1419,2.26,-3.15,8.12,-0.03,-0.02,0.01,603.0,559.0,556.0,593.0,530.0,10,4
1420,2.31,-3.11,8.07,-0.03,-0.02,0.01,603.0,560.0,556.0,593.0,529.0,10,4
1421,2.27,-3.2,8.1,-0.03,-0.02,0.01,604.0,560.0,556.0,593.0,529.0,10,4
1422,2.29,-3.18,8.11,-0.03,-0.01,0.01,603.0,560.0,557.0,593.0,529.0,10,4
1423,2.32,-3.17,8.05,-0.03,-0.01,0.01,604.0,560.0,557.0,593.0,529.0,10,4
1424,2.26,-3.18,8.05,-0.03,-0.02,0.01,603.0,560.0,556.0,593.0,530.0,10,4
1425,2.28,-3.13,8.09,-0.03,-0.02,0.0,604.0,560.0,556.0,594.0,530.0,10,4
1426,2.23,-3.17,8.13,-0.03,-0.01,0.01,604.0,560.0,556.0,593.0,530.0,10,4
1427,2.29,-3.15,8.06,-0.03,-0.01,0.01,603.0,560.0,556.0,593.0,530.0,10,4
1428,2.27,-3.15,8.11,-0.03,-0.01,0.01,603.0,560.0,556.0,593.0,530.0,10,4
1429,2.3,-3.14,8.11,-0.03,-0.02,0.01,603.0,561.0,556.0,593.0,531.0,10,4
1430,2.28,-3.2,8.07,-0.03,-0.02,0.01,604.0,560.0,556.0,593.0,530.0,10,4
1431,2.26,-3.14,8.06,-0.03,-0.01,0.01,602.0,560.0,557.0,594.0,530.0,10,4
1432,2.31,-3.16,8.05,-0.03,-0.02,0.01,603.0,561.0,557.0,593.0,530.0,10,4
1433,2.25,-3.19,8.06,-0.03,-0.01,0.01,603.0,560.0,557.0,593.0,531.0,10,4
1434,2.31,-3.18,8.12,-0.03,-0.01,0.01,603.0,561.0,557.0,593.0,530.0,10,4
1435,2.35,-3.14,8.11,-0.03,-0.01,0.01,603.0,560.0,556.0,593.0,530.0,10,4
1436,2.28,-3.17,8.06,-0.03,-0.01,0.0,603.0,560.0,557.0,593.0,530.0,10,4
1437,2.26,-3.15,8.09,-0.03,-0.01,0.01,603.0,560.0,557.0,593.0,530.0,10,4
1438,2.3,-3.19,8.12,-0.03,-0.02,0.0,603.0,560.0,557.0,593.0,530.0,10,4
1439,2.25,-3.18,8.15,-0.03,-0.03,0.01,603.0,560.0,556.0,593.0,530.0,10,4
1440,2.32,-3.16,8.16,-0.03,-0.03,0.01,604.0,561.0,557.0,593.0,530.0,10,4
1441,2.27,-3.14,8.05,-0.03,-0.02,0.01,603.0,560.0,556.0,593.0,530.0,10,4
1442,2.28,-3.17,8.04,-0.03,-0.02,0.01,602.0,560.0,557.0,593.0,530.0,10,4
1443,2.3,-3.15,8.04,-0.03,-0.01,0.01,603.0,561.0,558.0,594.0,531.0,10,4
1444,2.26,-3.12,8.04,-0.03,-0.01,0.0,604.0,560.0,557.0,594.0,530.0,10,4
1445,2.26,-3.14,8.08,-0.03,-0.01,0.0,603.0,560.0,557.0,594.0,530.0,10,4
1446,2.26,-3.15,8.07,-0.03,-0.01,0.01,605.0,561.0,556.0,593.0,530.0,10,4
1447,2.31,-3.13,8.13,-0.03,-0.02,0.01,604.0,560.0,556.0,593.0,530.0,10,4
1448,2.32,-3.14,8.08,-0.03,-0.01,0.0,603.0,560.0,557.0,593.0,530.0,10,4
1449,2.31,-3.15,8.09,-0.03,-0.01,0.01,603.0,560.0,557.0,593.0,530.0,10,4
1450,2.29,-3.13,8.03,-0.03,-0.02,0.0,604.0,560.0,557.0,593.0,531.0,10,4
1451,2.33,-3.15,8.11,-0.03,-0.01,0.0,604.0,561.0,557.0,593.0,531.0,10,4
1452,2.31,-3.14,8.05,-0.03,-0.01,0.0,602.0,560.0,557.0,594.0,530.0,10,4
1453,2.3,-3.17,8.1,-0.03,-0.02,-0.0,603.0,561.0,558.0,593.0,530.0,10,4
1454,2.26,-3.15,8.09,-0.03,-0.01,0.01,604.0,560.0,557.0,593.0,530.0,10,4
1455,2.29,-3.2,8.1,-0.03,-0.02,0.01,603.0,560.0,557.0,593.0,530.0,10,4
1456,2.29,-3.14,8.1,-0.03,-0.01,0.01,603.0,560.0,557.0,593.0,530.0,10,4
1457,2.29,-3.17,8.05,-0.03,-0.02,0.0,603.0,560.0,557.0,593.0,530.0,10,4
1458,2.27,-3.17,8.15,-0.03,-0.01,0.01,603.0,561.0,557.0,594.0,530.0,10,4
1459,2.27,-3.14,8.12,-0.03,-0.02,0.01,605.0,561.0,557.0,593.0,530.0,10,4
1460,2.25,-3.17,8.06,-0.03,-0.02,0.0,603.0,560.0,557.0,593.0,531.0,10,4
1461,2.27,-3.17,8.12,-0.03,-0.01,0.01,603.0,560.0,557.0,593.0,530.0,10,4
1462,2.27,-3.15,8.09,-0.03,-0.02,0.01,604.0,561.0,557.0,594.0,530.0,10,4
1463,2.24,-3.17,8.05,-0.03,-0.01,0.01,603.0,560.0,557.0,593.0,531.0,10,4
1464,2.31,-3.15,8.16,-0.03,-0.02,0.01,603.0,560.0,557.0,593.0,531.0,10,4
1465,2.26,-3.19,8.07,-0.03,-0.01,0.01,604.0,560.0,557.0,594.0,531.0,10,4
1466,2.28,-3.11,8.09,-0.03,-0.02,0.01,603.0,560.0,557.0,593.0,531.0,10,4
1467,2.31,-3.16,8.08,-0.03,-0.01,0.01,603.0,561.0,557.0,593.0,530.0,10,4
1468,2.3,-3.16,8.05,-0.03,-0.01,0.01,603.0,560.0,557.0,593.0,530.0,10,4
1469,2.25,-3.14,8.1,-0.03,-0.02,0.01,603.0,561.0,558.0,593.0,531.0,10,4
1470,2.25,-3.2,8.12,-0.03,-0.02,0.0,602.0,561.0,557.0,593.0,530.0,10,4
1471,2.22,-3.15,8.08,-0.03,-0.01,0.01,603.0,561.0,557.0,593.0,531.0,10,4
1472,2.26,-3.15,8.11,-0.03,-0.01,0.01,603.0,560.0,557.0,593.0,530.0,10,4
1473,2.31,-3.13,8.12,-0.03,-0.01,0.01,603.0,560.0,557.0,593.0,531.0,10,4
1474,2.32,-3.14,8.05,-0.03,-0.02,0.01,603.0,560.0,558.0,594.0,530.0,10,4
1475,2.25,-3.13,8.12,-0.03,-0.02,0.0,604.0,561.0,557.0,594.0,531.0,10,4
1476,2.26,-3.2,8.14,-0.03,-0.01,0.01,603.0,561.0,557.0,593.0,531.0,10,4
1477,2.32,-3.13,8.06,-0.03,-0.02,0.01,604.0,561.0,557.0,594.0,530.0,10,4
1478,2.28,-3.16,8.05,-0.03,-0.01,0.0,603.0,560.0,557.0,594.0,531.0,10,4
1479,2.27,-3.18,8.06,-0.03,-0.02,0.01,603.0,561.0,558.0,593.0,531.0,10,4
1480,2.27,-3.16,8.09,-0.03,-0.02,0.0,603.0,561.0,557.0,593.0,531.0,10,4
1481,2.29,-3.15,8.09,-0.03,-0.02,0.0,603.0,561.0,557.0,593.0,531.0,10,4
1482,2.32,-3.18,8.11,-0.03,-0.02,0.01,603.0,561.0,558.0,593.0,531.0,10,4
1483,2.29,-3.18,8.1,-0.03,-0.02,0.01,603.0,560.0,557.0,594.0,531.0,10,4
1484,2.3,-3.13,8.05,-0.03,-0.01,0.01,603.0,560.0,557.0,594.0,530.0,10,4
1485,2.28,-3.17,8.02,-0.03,-0.01,0.01,603.0,562.0,558.0,593.0,530.0,10,4
1486,2.26,-3.14,8.12,-0.03,-0.03,0.01,603.0,561.0,558.0,592.0,530.0,10,4
1487,2.27,-3.22,8.16,-0.03,-0.01,0.01,603.0,561.0,557.0,594.0,531.0,10,4
1488,2.28,-3.12,8.09,-0.03,-0.0,0.01,604.0,561.0,557.0,593.0,531.0,10,4
1489,2.32,-3.19,8.11,-0.03,-0.02,0.01,604.0,561.0,558.0,593.0,531.0,10,4
1490,2.28,-3.12,8.06,-0.03,-0.02,0.0,603.0,561.0,558.0,593.0,531.0,10,4
1491,2.27,-3.16,8.06,-0.03,-0.01,0.01,604.0,562.0,558.0,593.0,531.0,10,4
1492,2.32,-3.11,8.08,-0.03,-0.0,0.0,603.0,561.0,558.0,594.0,531.0,10,4
1493,2.28,-3.16,8.06,-0.03,-0.01,0.0,603.0,562.0,558.0,593.0,531.0,10,4
1494,2.23,-3.17,8.1,-0.03,-0.02,0.01,604.0,562.0,558.0,593.0,531.0,10,4
1495,2.3,-3.17,8.08,-0.03,-0.02,0.01,602.0,562.0,558.0,593.0,531.0,10,4
1496,2.28,-3.16,8.12,-0.03,-0.03,0.01,603.0,562.0,558.0,593.0,531.0,10,4
1497,2.25,-3.15,8.11,-0.03,-0.02,0.01,603.0,561.0,557.0,593.0,531.0,10,4
1498,2.26,-3.15,8.07,-0.03,-0.02,0.01,604.0,562.0,558.0,594.0,531.0,10,4
1499,2.31,-3.14,8.1,-0.03,-0.01,0.01,602.0,562.0,558.0,593.0,531.0,10,4
1500,2.29,-3.18,8.11,-0.02,-0.01,0.01,603.0,564.0,561.0,594.0,532.0,11,4
1501,2.49,-3.19,8.23,-0.02,-0.02,0.01,603.0,564.0,560.0,593.0,532.0,11,4
1502,2.31,-3.12,8.03,-0.03,-0.02,-0.0,604.0,564.0,560.0,594.0,532.0,11,4
1503,2.32,-3.1,8.01,-0.03,0.02,0.01,603.0,563.0,561.0,593.0,532.0,11,4
1504,2.34,-3.13,8.08,-0.03,-0.05,-0.02,602.0,563.0,561.0,594.0,532.0,11,4
1505,2.27,-3.08,8.09,-0.06,0.03,0.03,603.0,564.0,561.0,593.0,532.0,11,4
1506,2.34,-3.1,8.0,-0.04,0.01,0.01,604.0,564.0,561.0,594.0,532.0,11,4
1507,2.29,-3.1,8.3,-0.08,0.07,0.04,603.0,564.0,561.0,594.0,533.0,11,4
1508,2.3,-3.04,8.0,-0.06,0.05,-0.01,604.0,565.0,562.0,594.0,532.0,11,4
1509,2.23,-3.23,8.13,-0.05,0.04,0.02,603.0,565.0,563.0,594.0,532.0,11,4
1510,2.22,-3.28,8.11,-0.02,0.05,-0.01,603.0,567.0,565.0,596.0,533.0,11,4
1511,2.16,-3.3,8.09,-0.02,0.01,-0.01,604.0,567.0,566.0,596.0,534.0,11,4
1512,2.25,-3.19,8.01,-0.01,-0.05,-0.04,603.0,567.0,565.0,597.0,534.0,11,4
1513,2.22,-3.13,8.09,-0.07,0.05,0.01,604.0,567.0,566.0,597.0,534.0,11,4
1514,1.77,-3.18,8.05,-0.02,-0.0,-0.01,603.0,567.0,567.0,599.0,534.0,11,4
1515,2.23,-3.3,8.03,0.01,-0.05,-0.01,604.0,570.0,570.0,603.0,536.0,11,4
1516,2.2,-3.17,8.17,0.02,-0.16,-0.03,603.0,570.0,571.0,604.0,538.0,11,4
1517,2.31,-3.27,8.08,0.02,-0.14,-0.02,604.0,570.0,571.0,604.0,538.0,11,4
1518,2.44,-3.25,8.09,-0.02,-0.27,-0.0,603.0,570.0,571.0,604.0,538.0,11,4
1519,2.59,-3.16,7.91,-0.02,-0.04,-0.0,603.0,571.0,571.0,603.0,538.0,11,4
1520,2.44,-3.15,8.1,-0.03,0.04,0.02,603.0,570.0,572.0,604.0,538.0,11,4
1521,2.38,-3.13,8.08,-0.03,0.03,0.0,604.0,571.0,571.0,603.0,538.0,11,4
1522,2.23,-3.12,8.11,-0.03,-0.0,0.0,604.0,570.0,571.0,603.0,537.0,11,4
1523,2.35,-3.14,8.07,-0.02,-0.02,0.0,604.0,571.0,571.0,604.0,538.0,11,4
1524,2.41,-3.17,8.09,-0.03,-0.03,0.01,604.0,571.0,571.0,603.0,538.0,11,4
1525,2.4,-3.14,8.09,-0.03,-0.05,0.01,605.0,571.0,571.0,603.0,537.0,11,4
1526,2.24,-3.14,8.09,-0.02,-0.03,0.01,604.0,572.0,571.0,603.0,538.0,11,4
1527,2.42,-3.11,8.0,-0.02,-0.04,0.0,604.0,571.0,571.0,602.0,538.0,11,4
1528,2.27,-3.12,7.98,-0.02,-0.01,0.01,604.0,572.0,571.0,603.0,538.0,11,4
1529,2.49,-3.1,8.03,-0.03,-0.01,0.01,604.0,572.0,571.0,603.0,538.0,11,4
1530,2.36,-3.16,8.11,-0.03,-0.01,-0.01,604.0,572.0,572.0,603.0,537.0,11,4
1531,2.28,-3.13,8.01,-0.02,-0.01,0.01,604.0,571.0,571.0,603.0,538.0,11,4
1532,2.5,-3.06,7.98,-0.03,-0.06,-0.0,605.0,571.0,571.0,603.0,537.0,11,4
1533,2.4,-3.13,8.09,-0.03,0.02,0.01,605.0,571.0,571.0,603.0,537.0,11,4
1534,2.54,-3.07,8.04,-0.03,0.01,0.0,604.0,571.0,571.0,602.0,537.0,11,4
1535,2.38,-3.18,8.13,-0.03,-0.05,-0.02,604.0,572.0,572.0,603.0,537.0,11,4
1536,2.27,-3.08,8.11,-0.02,0.02,0.0,605.0,572.0,571.0,603.0,537.0,11,4
1537,2.51,-3.24,8.07,-0.03,-0.06,-0.01,605.0,572.0,572.0,603.0,537.0,11,4
1538,2.38,-3.12,8.08,-0.02,0.01,0.02,604.0,571.0,571.0,603.0,537.0,11,4
1539,2.37,-3.09,8.14,0.03,-0.09,-0.0,605.0,572.0,571.0,603.0,537.0,11,4
1540,2.32,-3.02,7.99,0.06,-0.11,-0.0,604.0,571.0,571.0,603.0,537.0,11,4
1541,2.68,-3.06,7.99,0.01,-0.1,-0.01,604.0,572.0,571.0,603.0,538.0,11,4
1542,2.39,-2.99,8.26,0.02,-0.02,0.0,605.0,570.0,571.0,604.0,538.0,11,4
1543,2.44,-3.0,8.05,0.07,-0.13,0.0,604.0,571.0,571.0,602.0,538.0,11,4
1544,2.87,-2.91,8.04,0.01,-0.04,0.02,604.0,571.0,571.0,603.0,538.0,11,4
1545,2.44,-2.98,8.13,0.04,0.0,0.04,604.0,571.0,570.0,603.0,538.0,11,4
1546,2.96,-2.81,7.82,0.01,0.04,0.04,604.0,570.0,571.0,604.0,537.0,11,4
1547,2.15,-2.85,8.15,-0.03,0.09,0.04,603.0,572.0,571.0,604.0,537.0,11,4
1548,2.72,-2.88,8.0,-0.04,0.01,-0.0,605.0,571.0,571.0,604.0,537.0,11,4
1549,2.55,-2.89,8.16,-0.06,-0.03,-0.01,605.0,572.0,571.0,604.0,537.0,11,4
1550,2.67,-2.83,8.16,-0.03,-0.04,-0.01,604.0,571.0,571.0,604.0,537.0,11,4
1551,2.48,-2.92,8.12,-0.01,-0.05,0.0,604.0,572.0,571.0,603.0,538.0,11,4
1552,2.73,-2.92,8.11,-0.0,-0.02,0.02,604.0,572.0,571.0,604.0,537.0,11,4
1553,2.58,-2.89,8.08,0.01,-0.02,0.01,604.0,571.0,571.0,604.0,537.0,11,4
1554,2.43,-2.85,7.96,0.01,-0.05,-0.01,604.0,572.0,572.0,604.0,538.0,11,4
1555,2.9,-2.62,8.12,-0.04,-0.09,-0.03,604.0,572.0,571.0,604.0,538.0,11,4
1556,2.43,-2.73,8.2,-0.04,0.07,0.04,605.0,573.0,572.0,604.0,539.0,11,4
1557,2.43,-2.94,8.06,-0.03,-0.04,0.01,605.0,574.0,573.0,605.0,539.0,11,4
1558,2.74,-3.01,8.07,-0.05,0.02,-0.01,605.0,573.0,573.0,605.0,539.0,11,4
1559,2.56,-2.73,8.26,-0.05,-0.01,0.0,605.0,573.0,573.0,604.0,539.0,11,4
1560,2.52,-2.8,8.03,-0.02,-0.03,0.01,606.0,574.0,573.0,604.0,539.0,11,4
1561,2.66,-2.89,8.06,-0.02,-0.06,0.0,605.0,573.0,573.0,605.0,539.0,11,4
1562,2.75,-2.72,7.97,-0.02,-0.05,0.01,605.0,574.0,573.0,605.0,539.0,11,4
1563,2.58,-2.89,8.06,-0.02,-0.03,0.02,605.0,574.0,572.0,605.0,539.0,11,4
1564,2.67,-2.84,8.14,0.0,-0.09,-0.0,605.0,573.0,573.0,604.0,539.0,11,4
1565,2.94,-2.66,8.03,-0.02,-0.04,0.03,605.0,573.0,573.0,605.0,538.0,11,4
1566,2.79,-2.94,8.29,-0.07,0.05,-0.01,605.0,573.0,573.0,604.0,539.0,11,4
1567,2.54,-3.04,8.03,-0.01,-0.07,-0.04,605.0,574.0,573.0,605.0,538.0,11,4
1568,2.74,-2.64,7.95,-0.02,-0.08,-0.01,605.0,574.0,573.0,604.0,539.0,11,4
1569,3.0,-2.66,8.16,-0.03,-0.07,-0.0,606.0,574.0,573.0,603.0,539.0,11,4
1570,2.39,-2.78,7.76,0.01,0.13,0.03,604.0,573.0,573.0,604.0,539.0,11,4
1571,3.07,-2.64,8.05,-0.06,-0.01,0.0,605.0,574.0,572.0,604.0,539.0,11,4
1572,2.47,-2.89,8.3,-0.04,0.02,0.01,606.0,574.0,573.0,604.0,539.0,11,4
1573,2.87,-2.81,8.01,-0.04,-0.03,-0.01,606.0,574.0,572.0,604.0,539.0,11,4
1574,2.61,-2.81,8.17,-0.04,-0.02,-0.0,606.0,574.0,572.0,604.0,538.0,11,4
1575,2.89,-2.92,8.0,-0.06,-0.02,0.0,605.0,574.0,573.0,604.0,539.0,11,4
1576,2.56,-2.87,8.22,-0.04,-0.0,0.03,605.0,574.0,572.0,604.0,539.0,11,4
1577,2.78,-2.82,8.09,-0.03,-0.06,0.01,606.0,574.0,573.0,603.0,539.0,11,4
1578,2.69,-2.91,8.11,-0.01,0.0,0.03,606.0,574.0,573.0,604.0,538.0,11,4
1579,2.8,-2.9,8.06,-0.02,-0.06,0.01,606.0,573.0,572.0,604.0,540.0,11,4
1580,2.56,-2.84,8.11,-0.01,-0.04,0.01,606.0,573.0,572.0,604.0,540.0,11,4
1581,2.78,-2.72,8.07,-0.02,-0.06,0.01,606.0,574.0,573.0,604.0,538.0,11,4
1582,3.02,-2.82,7.94,-0.03,-0.07,-0.02,605.0,573.0,572.0,604.0,538.0,11,4
1583,2.69,-2.83,8.14,-0.02,-0.06,-0.02,606.0,574.0,572.0,604.0,539.0,11,4
1584,2.82,-2.68,7.93,-0.01,-0.12,0.01,605.0,573.0,572.0,604.0,538.0,11,4
1585,3.11,-2.69,7.91,-0.05,0.03,0.04,606.0,574.0,572.0,604.0,539.0,11,4
1586,2.93,-3.1,8.06,-0.09,0.05,-0.02,605.0,574.0,573.0,604.0,539.0,11,4
1587,2.55,-2.76,8.12,-0.08,-0.08,-0.04,606.0,574.0,572.0,604.0,539.0,11,4
1588,3.3,-2.9,8.01,-0.08,0.12,0.03,606.0,573.0,572.0,603.0,539.0,11,4
1589,2.46,-2.98,8.0,-0.09,0.06,0.01,605.0,574.0,573.0,603.0,539.0,11,4
1590,2.84,-2.81,8.13,-0.05,0.07,-0.0,606.0,574.0,573.0,603.0,538.0,11,4
1591,2.45,-2.78,8.14,0.02,-0.15,0.0,605.0,573.0,572.0,603.0,539.0,11,4
1592,3.37,-3.1,7.89,-0.11,-0.07,0.03,606.0,574.0,572.0,603.0,537.0,11,4
1593,2.73,-2.53,7.81,-0.04,0.2,0.07,605.0,574.0,572.0,602.0,537.0,11,4
1594,2.89,-3.05,8.43,0.01,-0.25,-0.14,605.0,574.0,572.0,602.0,538.0,11,4
1595,2.48,-2.55,7.42,0.2,0.16,0.07,606.0,574.0,572.0,604.0,538.0,11,4
1596,3.01,-2.38,8.0,0.14,-0.34,-0.08,605.0,574.0,572.0,604.0,538.0,11,4
1597,2.65,-2.62,7.3,-0.05,-0.12,0.12,605.0,574.0,572.0,604.0,539.0,11,4
1598,3.79,-2.69,7.98,0.02,-0.06,0.21,605.0,574.0,572.0,603.0,539.0,11,4
1599,3.25,-2.77,7.89,-0.05,-0.39,0.04,606.0,575.0,574.0,605.0,539.0,11,4
1600,3.3,-2.8,7.93,-0.06,-0.11,-0.06,605.0,575.0,574.0,605.0,540.0,11,4
1601,3.36,-2.91,7.94,-0.03,-0.07,-0.04,605.0,575.0,573.0,605.0,539.0,11,4
1602,3.28,-2.89,7.78,-0.04,-0.06,-0.06,606.0,575.0,574.0,604.0,539.0,11,4
1603,3.46,-2.65,7.91,0.02,0.13,-0.04,605.0,576.0,573.0,604.0,539.0,11,4
1604,3.05,-2.66,7.86,-0.04,0.12,0.01,605.0,575.0,573.0,603.0,538.0,11,4
1605,3.45,-2.78,7.87,-0.06,0.04,0.02,606.0,575.0,573.0,603.0,539.0,11,4
1606,2.95,-2.68,8.32,0.06,0.25,0.14,605.0,575.0,573.0,603.0,537.0,11,4
1607,3.93,-2.39,7.6,0.2,0.04,0.17,605.0,575.0,574.0,603.0,539.0,11,4
1608,3.27,-2.89,7.79,-0.27,0.13,-0.05,605.0,576.0,574.0,603.0,539.0,11,4
1609,2.63,-3.23,8.41,-0.06,0.09,-0.2,605.0,576.0,573.0,603.0,539.0,11,4
1610,2.47,-2.31,8.43,0.28,-0.44,-0.09,605.0,576.0,573.0,603.0,540.0,11,4
1611,4.02,-2.09,7.35,-0.0,0.06,0.11,605.0,575.0,574.0,603.0,540.0,11,4
1612,2.99,-3.01,7.89,-0.03,0.13,-0.0,606.0,576.0,573.0,604.0,540.0,11,4
1613,2.94,-2.87,8.2,-0.08,-0.13,-0.03,606.0,576.0,573.0,604.0,540.0,11,4
1614,3.81,-2.19,8.15,0.05,-0.07,0.05,607.0,575.0,573.0,602.0,539.0,11,4
1615,3.58,-2.44,7.75,0.14,0.1,0.15,605.0,575.0,574.0,604.0,539.0,11,4
1616,3.11,-2.7,8.09,0.03,0.41,0.21,605.0,575.0,574.0,604.0,539.0,11,4
1617,1.98,-2.96,8.34,-0.04,0.06,0.05,606.0,576.0,575.0,604.0,539.0,11,4
1618,3.43,-2.38,8.08,-0.05,0.18,0.06,605.0,575.0,574.0,604.0,539.0,11,4
1619,2.18,-2.42,8.43,-0.05,-0.15,-0.12,605.0,575.0,575.0,604.0,540.0,11,4
1620,2.72,-2.76,7.96,-0.03,-0.15,-0.07,604.0,576.0,575.0,604.0,540.0,11,4
1621,2.97,-2.46,8.0,-0.11,0.11,0.04,606.0,576.0,574.0,604.0,540.0,11,4
1622,3.21,-2.7,8.22,-0.15,-0.04,-0.1,606.0,576.0,574.0,604.0,540.0,11,4
1623,2.37,-3.05,8.4,-0.1,-0.13,-0.2,606.0,576.0,574.0,604.0,540.0,11,4
1624,3.21,-2.31,8.16,-0.03,-0.13,-0.08,607.0,576.0,573.0,602.0,541.0,11,4
1625,2.84,-2.8,7.96,0.0,0.09,0.11,607.0,577.0,574.0,603.0,540.0,11,4
1626,2.42,-2.96,8.16,-0.03,-0.08,0.08,606.0,576.0,574.0,603.0,539.0,11,4
1627,3.11,-2.42,8.15,-0.02,-0.12,0.03,606.0,576.0,574.0,603.0,539.0,11,4
1628,3.21,-2.7,7.9,0.04,-0.05,0.02,606.0,576.0,575.0,604.0,540.0,11,4
1629,2.6,-2.77,7.97,0.02,-0.09,0.01,606.0,576.0,574.0,604.0,540.0,11,4
1630,3.04,-2.54,8.13,0.04,-0.02,0.04,606.0,576.0,574.0,604.0,540.0,11,4
1631,3.05,-2.53,7.9,0.06,-0.05,0.03,606.0,576.0,574.0,603.0,541.0,11,4
1632,3.21,-2.52,8.0,-0.05,-0.03,-0.02,606.0,577.0,574.0,603.0,541.0,11,4
1633,2.84,-2.66,8.23,-0.02,-0.02,-0.03,606.0,576.0,574.0,603.0,540.0,11,4
1634,3.34,-2.42,8.04,0.0,0.0,0.02,606.0,576.0,574.0,603.0,541.0,11,4
1635,2.78,-2.81,8.05,0.01,0.04,0.06,605.0,576.0,574.0,604.0,541.0,11,4
1636,2.95,-2.18,8.09,-0.05,-0.04,-0.04,606.0,577.0,574.0,603.0,540.0,11,4
1637,3.23,-2.79,7.99,-0.05,0.02,-0.06,606.0,576.0,574.0,605.0,541.0,11,4
1638,2.7,-2.51,8.23,-0.01,-0.04,-0.03,606.0,576.0,574.0,604.0,541.0,11,4
1639,3.09,-2.43,8.07,-0.01,-0.05,0.02,605.0,576.0,575.0,603.0,540.0,11,4
1640,2.88,-2.5,7.99,-0.02,0.06,0.05,606.0,576.0,574.0,604.0,540.0,11,4
1641,3.17,-2.44,8.13,-0.06,-0.06,-0.01,606.0,575.0,574.0,603.0,540.0,11,4
1642,2.63,-2.79,8.06,-0.06,-0.07,-0.04,606.0,576.0,575.0,604.0,541.0,11,4
1643,2.95,-2.51,8.17,-0.07,-0.21,-0.02,606.0,577.0,574.0,604.0,541.0,11,4
1644,3.46,-2.38,8.12,-0.02,-0.07,0.02,606.0,577.0,574.0,603.0,540.0,11,4
1645,3.29,-2.58,7.99,-0.0,-0.07,0.01,606.0,576.0,574.0,603.0,540.0,11,4
1646,2.95,-2.43,8.02,0.01,-0.01,0.02,606.0,576.0,574.0,603.0,540.0,11,4
1647,3.28,-2.64,7.99,-0.04,0.05,-0.01,606.0,575.0,574.0,604.0,541.0,11,4
1648,2.81,-2.61,8.07,-0.01,-0.04,-0.01,605.0,576.0,574.0,603.0,540.0,11,4
1649,3.12,-2.26,8.09,-0.01,-0.02,0.04,606.0,576.0,574.0,603.0,540.0,11,4
1650,3.18,-2.57,7.99,-0.01,-0.04,0.02,606.0,576.0,574.0,604.0,541.0,12,4
1651,3.27,-2.56,7.99,0.01,-0.07,0.02,606.0,576.0,574.0,604.0,541.0,12,4
1652,3.36,-2.29,7.99,-0.0,-0.05,0.01,606.0,576.0,575.0,604.0,541.0,12,4
1653,3.27,-2.65,7.98,-0.01,0.05,0.02,606.0,577.0,575.0,604.0,541.0,12,4
1654,3.18,-2.45,7.99,-0.02,0.01,0.01,606.0,577.0,574.0,604.0,541.0,12,4
1655,3.14,-2.51,8.05,-0.01,-0.01,0.01,606.0,577.0,575.0,604.0,541.0,12,4
1656,3.18,-2.48,8.04,-0.01,-0.05,0.01,606.0,577.0,575.0,604.0,542.0,12,4
1657,3.29,-2.39,8.1,0.01,0.02,0.06,605.0,576.0,575.0,604.0,541.0,12,4
1658,3.25,-2.37,8.1,0.01,-0.02,0.04,606.0,576.0,574.0,604.0,542.0,12,4
1659,3.09,-2.55,8.0,-0.03,-0.0,-0.02,606.0,577.0,575.0,605.0,541.0,12,4
1660,3.13,-2.56,8.04,-0.04,-0.05,-0.03,606.0,577.0,575.0,604.0,542.0,12,4
1661,3.08,-2.51,8.04,-0.01,0.02,0.03,606.0,577.0,574.0,605.0,542.0,12,4
1662,3.2,-2.33,8.02,-0.01,-0.06,0.04,606.0,577.0,575.0,604.0,541.0,12,4
1663,3.32,-2.38,8.01,-0.01,-0.0,0.04,607.0,578.0,575.0,604.0,541.0,12,4
1664,3.11,-2.59,8.06,-0.01,-0.01,0.03,606.0,577.0,575.0,604.0,541.0,12,4
1665,3.03,-2.51,8.12,-0.0,-0.03,0.04,605.0,577.0,575.0,604.0,541.0,12,4
1666,3.3,-2.3,8.02,-0.0,-0.0,0.03,606.0,577.0,574.0,604.0,541.0,12,4
1667,3.21,-2.34,8.02,-0.01,0.04,0.01,605.0,577.0,575.0,604.0,541.0,12,4
1668,3.03,-2.47,8.08,-0.03,-0.02,-0.01,604.0,577.0,575.0,603.0,542.0,12,4
1669,3.21,-2.5,8.07,-0.05,-0.09,-0.05,605.0,577.0,574.0,604.0,542.0,12,4
1670,3.36,-2.4,8.04,-0.02,-0.04,0.0,605.0,577.0,575.0,603.0,541.0,12,4
1671,3.07,-2.28,8.1,-0.04,-0.13,-0.06,607.0,577.0,575.0,603.0,541.0,12,4
1672,3.7,-2.45,8.0,-0.07,-0.33,-0.07,604.0,576.0,575.0,604.0,541.0,12,4
1673,3.39,-2.44,7.98,-0.01,0.05,0.02,605.0,577.0,575.0,603.0,541.0,12,4
1674,3.18,-2.43,8.01,-0.02,-0.03,-0.01,605.0,576.0,575.0,603.0,541.0,12,4
1675,3.73,-2.43,7.92,-0.01,-0.03,0.02,605.0,576.0,575.0,604.0,541.0,12,4
1676,3.34,-2.36,8.04,-0.01,0.0,0.03,606.0,577.0,575.0,604.0,541.0,12,4
